<?xml version='1.0' encoding='UTF-8'?>
<ODM FileOID="ODM.DATASET.001" AsOfDateTime="2026-07-08T18:04:24.300249+00:00" DatasetXMLVersion="1.0.0" CreationDateTime="2026-07-08T18:04:24.300249+00:00" ODMVersion="1.3.2" FileType="Snapshot" Originator="swhume" SourceSystem="odmlib" SourceSystemVersion="0.1" xmlns="http://www.cdisc.org/ns/odm/v1.3" xmlns:data="http://www.cdisc.org/ns/Dataset-XML/v1.0"><ClinicalData StudyOID="cdisc.odmlib.001" MetaDataVersionOID="MDV.001"><ItemGroupData ItemGroupOID="IG.AE" data:ItemGroupDataSeq="1"><ItemData ItemOID="IT.STUDYID" Value="CDISC01" /><ItemData ItemOID="IT.AE.DOMAIN" Value="AE" /><ItemData ItemOID="IT.USUBJID" Value="CDISC01.100008" /><ItemData ItemOID="IT.AE.AESEQ" Value="1" /><ItemData ItemOID="IT.AE.AETERM" Value="AGITATED" /><ItemData ItemOID="IT.AE.AEMODIFY" Value="AGITATION" /><ItemData ItemOID="IT.AE.AEDECOD" Value="Agitation" /><ItemData ItemOID="IT.AE.AESEV" Value="MILD" /><ItemData ItemOID="IT.AE.AESER" Value="N" /><ItemData ItemOID="IT.AE.AEACN" Value="DOSE NOT CHANGED" /><ItemData ItemOID="IT.AE.AEREL" Value="POSSIBLY RELATED" /></ItemGroupData><ItemGroupData ItemGroupOID="IG.AE" data:ItemGroupDataSeq="2"><ItemData ItemOID="IT.STUDYID" Value="CDISC01" /><ItemData ItemOID="IT.AE.DOMAIN" Value="AE" /><ItemData ItemOID="IT.USUBJID" Value="CDISC01.100008" /><ItemData ItemOID="IT.AE.AESEQ" Value="2" /><ItemData ItemOID="IT.AE.AETERM" Value="ANXIETY" /><ItemData ItemOID="IT.AE.AEMODIFY" Value="AGITATION" /><ItemData ItemOID="IT.AE.AEDECOD" Value="Anxiety" /><ItemData ItemOID="IT.AE.AESEV" Value="MODERATE" /><ItemData ItemOID="IT.AE.AESER" Value="N" /><ItemData ItemOID="IT.AE.AEACN" Value="DOSE NOT CHANGED" /><ItemData ItemOID="IT.AE.AEREL" Value="POSSIBLY RELATED" /></ItemGroupData></ClinicalData></ODM>