{"FileOID": "www.cdisc.org/CDISC-Sample/ADaM/1/Define-XML_2.1.0", "ODMVersion": "1.3.2", "FileType": "Snapshot", "CreationDateTime": "2018-11-15T11:01:00", "Originator": "CDISC Data Exchange Standards Team", "Context": "Submission", "Study": {"OID": "STDY.www.cdisc.org/CDISC-Sample/ADaM", "GlobalVariables": {"StudyName": {"_content": "CDISC-Sample"}, "StudyDescription": {"_content": "CDISC-Sample Data Definition"}, "ProtocolName": {"_content": "CDISC-Sample"}}, "MetaDataVersion": {"OID": "MDV.CDISC01.ADaMIG.1.1.ADaM.2.1", "Name": "Study CDISC-Sample, Data Definitions", "Description": "Study CDISC-Sample, Data Definitions", "DefineVersion": "2.1.0", "Standards": {"Standard": [{"OID": "STD.01", "Name": "ADaMIG", "Type": "IG", "Status": "Final", "Version": "1.1"}, {"OID": "STD.CT.01", "Name": "CDISC/NCI", "Type": "CT", "PublishingSet": "ADaM", "Status": "Final", "Version": "2017-09-29", "CommentOID": "COM.STDCT.01"}, {"OID": "STD.CT.02", "Name": "CDISC/NCI", "Type": "CT", "PublishingSet": "SDTM", "Status": "Final", "Version": "2018-06-29", "CommentOID": "COM.STDCT.02"}]}, "SupplementalDoc": {"DocumentRef": [{"leafID": "LF.ADRG"}]}, "ValueListDef": [{"OID": "VL.ADQSADAS.AVAL", "ItemRef": [{"ItemOID": "IT.ADQSADAS.AVAL.ACITM01-ACITM14", "Mandatory": "No", "OrderNumber": 1, "WhereClauseRef": [{"WhereClauseOID": "WC.ADQSADAS.AVAL.ACITM01-ACITM14"}]}, {"ItemOID": "IT.ADQSADAS.AVAL.ACTOT", "Mandatory": "No", "OrderNumber": 2, "MethodOID": "MT.ADQSADAS.AVAL.ACTOT", "WhereClauseRef": [{"WhereClauseOID": "WC.ADQSADAS.AVAL.ACTOT"}]}]}, {"OID": "VL.ADQSADAS.DTYPE", "ItemRef": [{"ItemOID": "IT.ADQSADAS.DTYPE.ACITM01-ACITM14", "Mandatory": "No", "OrderNumber": 1, "WhereClauseRef": [{"WhereClauseOID": "WC.ADQSADAS.DTYPE.ACITM01-ACITM14"}]}, {"ItemOID": "IT.ADQSADAS.DTYPE.ACTOT", "Mandatory": "No", "OrderNumber": 2, "WhereClauseRef": [{"WhereClauseOID": "WC.ADQSADAS.DTYPE.ACTOT"}]}]}, {"OID": "VL.ADQSADAS.QSSEQ", "ItemRef": [{"ItemOID": "IT.ADQSADAS.QSSEQ.ACITM01-ACITM14", "Mandatory": "No", "OrderNumber": 1, "WhereClauseRef": [{"WhereClauseOID": "WC.ADQSADAS.QSSEQ.ACITM01-ACITM14"}]}, {"ItemOID": "IT.ADQSADAS.QSSEQ.ACTOT", "Mandatory": "No", "OrderNumber": 2, "WhereClauseRef": [{"WhereClauseOID": "WC.ADQSADAS.QSSEQ.ACTOT"}]}]}], "WhereClauseDef": [{"OID": "WC.ADQSADAS.AVAL.ACITM01-ACITM14", "RangeCheck": [{"Comparator": "IN", "SoftHard": "Soft", "ItemOID": "IT.ADQSADAS.PARAMCD", "CheckValue": [{"_content": "ACITM01"}, {"_content": "ACITM02"}, {"_content": "ACITM03"}, {"_content": "ACITM04"}, {"_content": "ACITM05"}, {"_content": "ACITM06"}, {"_content": "ACITM07"}, {"_content": "ACITM08"}, {"_content": "ACITM09"}, {"_content": "ACITM10"}, {"_content": "ACITM11"}, {"_content": "ACITM12"}, {"_content": "ACITM13"}, {"_content": "ACITM14"}]}]}, {"OID": "WC.ADQSADAS.AVAL.ACTOT", "RangeCheck": [{"Comparator": "EQ", "SoftHard": "Soft", "ItemOID": "IT.ADQSADAS.PARAMCD", "CheckValue": [{"_content": "ACTOT"}]}]}, {"OID": "WC.ADQSADAS.DTYPE.ACITM01-ACITM14", "RangeCheck": [{"Comparator": "NE", "SoftHard": "Soft", "ItemOID": "IT.ADQSADAS.PARAMCD", "CheckValue": [{"_content": "ACTOT"}]}]}, {"OID": "WC.ADQSADAS.DTYPE.ACTOT", "RangeCheck": [{"Comparator": "EQ", "SoftHard": "Soft", "ItemOID": "IT.ADQSADAS.PARAMCD", "CheckValue": [{"_content": "ACTOT"}]}]}, {"OID": "WC.ADQSADAS.QSSEQ.ACITM01-ACITM14", "RangeCheck": [{"Comparator": "NE", "SoftHard": "Soft", "ItemOID": "IT.ADQSADAS.PARAMCD", "CheckValue": [{"_content": "ACTOT"}]}]}, {"OID": "WC.ADQSADAS.QSSEQ.ACTOT", "RangeCheck": [{"Comparator": "EQ", "SoftHard": "Soft", "ItemOID": "IT.ADQSADAS.PARAMCD", "CheckValue": [{"_content": "ACTOT"}]}]}, {"OID": "WC.Table_14-3.01.R.1.ADQSADAS", "RangeCheck": [{"Comparator": "EQ", "SoftHard": "Soft", "ItemOID": "IT.ADQSADAS.PARAMCD", "CheckValue": [{"_content": "ACTOT"}]}, {"Comparator": "EQ", "SoftHard": "Soft", "ItemOID": "IT.ADQSADAS.AVISIT", "CheckValue": [{"_content": "Week 24"}]}, {"Comparator": "EQ", "SoftHard": "Soft", "ItemOID": "IT.ADQSADAS.EFFFL", "CheckValue": [{"_content": "Y"}]}, {"Comparator": "EQ", "SoftHard": "Soft", "ItemOID": "IT.ADQSADAS.ANL01FL", "CheckValue": [{"_content": "Y"}]}]}, {"OID": "WC.Table_14-3.01.R.2.ADQSADAS", "RangeCheck": [{"Comparator": "EQ", "SoftHard": "Soft", "ItemOID": "IT.ADQSADAS.PARAMCD", "CheckValue": [{"_content": "ACTOT"}]}, {"Comparator": "EQ", "SoftHard": "Soft", "ItemOID": "IT.ADQSADAS.AVISIT", "CheckValue": [{"_content": "Week 24"}]}, {"Comparator": "EQ", "SoftHard": "Soft", "ItemOID": "IT.ADQSADAS.EFFFL", "CheckValue": [{"_content": "Y"}]}, {"Comparator": "EQ", "SoftHard": "Soft", "ItemOID": "IT.ADQSADAS.ANL01FL", "CheckValue": [{"_content": "Y"}]}]}, {"OID": "WC.Table_14-5.02.R.1.ADAE", "RangeCheck": [{"Comparator": "EQ", "SoftHard": "Soft", "ItemOID": "IT.ADAE.TRTEMFL", "CheckValue": [{"_content": "Y"}]}, {"Comparator": "EQ", "SoftHard": "Soft", "ItemOID": "IT.ADAE.AESER", "CheckValue": [{"_content": "Y"}]}]}, {"OID": "WC.Table_14-5.02.R.1.ADSL", "RangeCheck": [{"Comparator": "EQ", "SoftHard": "Soft", "ItemOID": "IT.ADSL.SAFFL", "CheckValue": [{"_content": "Y"}]}]}], "ItemGroupDef": [{"OID": "IG.ADSL", "Name": "ADSL", "SASDatasetName": "ADSL", "Repeating": "No", "IsReferenceData": "No", "Purpose": "Analysis", "StandardOID": "STD.01", "Structure": "one record per subject", "ArchiveLocationID": "LF.ADSL", "CommentOID": "COM.ADSL", "Description": {"TranslatedText": [{"lang": "en", "_content": "Subject-Level Analysis"}]}, "ItemRef": [{"ItemOID": "IT.ADSL.STUDYID", "OrderNumber": 1, "Mandatory": "No", "KeySequence": 1}, {"ItemOID": "IT.ADSL.USUBJID", "OrderNumber": 2, "Mandatory": "No", "KeySequence": 2}, {"ItemOID": "IT.ADSL.SUBJID", "OrderNumber": 3, "Mandatory": "No"}, {"ItemOID": "IT.ADSL.SITEID", "OrderNumber": 4, "Mandatory": "No"}, {"ItemOID": "IT.ADSL.SITEGR1", "OrderNumber": 5, "Mandatory": "No", "MethodOID": "MT.ADSL.SITEGR1"}, {"ItemOID": "IT.ADSL.ARM", "OrderNumber": 6, "Mandatory": "No"}, {"ItemOID": "IT.ADSL.TRT01P", "OrderNumber": 7, "Mandatory": "No"}, {"ItemOID": "IT.ADSL.TRT01PN", "OrderNumber": 8, "Mandatory": "No"}, {"ItemOID": "IT.ADSL.TRT01A", "OrderNumber": 9, "Mandatory": "No"}, {"ItemOID": "IT.ADSL.TRT01AN", "OrderNumber": 10, "Mandatory": "No"}, {"ItemOID": "IT.ADSL.TRTSDT", "OrderNumber": 11, "Mandatory": "No", "MethodOID": "MT.ADSL.TRTSDT"}, {"ItemOID": "IT.ADSL.TRTEDT", "OrderNumber": 12, "Mandatory": "No", "MethodOID": "MT.ADSL.TRTEDT"}, {"ItemOID": "IT.ADSL.TRTDURD", "OrderNumber": 13, "Mandatory": "No", "MethodOID": "MT.ADSL.TRTDURD"}, {"ItemOID": "IT.ADSL.AVGDD", "OrderNumber": 14, "Mandatory": "No", "MethodOID": "MT.ADSL.AVGDD"}, {"ItemOID": "IT.ADSL.CUMDOSE", "OrderNumber": 15, "Mandatory": "No", "MethodOID": "MT.ADSL.CUMDOSE"}, {"ItemOID": "IT.ADSL.AGE", "OrderNumber": 16, "Mandatory": "No"}, {"ItemOID": "IT.ADSL.AGEGR1", "OrderNumber": 17, "Mandatory": "No", "MethodOID": "MT.ADSL.AGEGR1"}, {"ItemOID": "IT.ADSL.AGEGR1N", "OrderNumber": 18, "Mandatory": "No"}, {"ItemOID": "IT.ADSL.AGEU", "OrderNumber": 19, "Mandatory": "No"}, {"ItemOID": "IT.ADSL.RACE", "OrderNumber": 20, "Mandatory": "No"}, {"ItemOID": "IT.ADSL.RACEN", "OrderNumber": 21, "Mandatory": "No"}, {"ItemOID": "IT.ADSL.SEX", "OrderNumber": 22, "Mandatory": "No"}, {"ItemOID": "IT.ADSL.ETHNIC", "OrderNumber": 23, "Mandatory": "No"}, {"ItemOID": "IT.ADSL.SAFFL", "OrderNumber": 24, "Mandatory": "No", "MethodOID": "MT.ADSL.SAFFL"}, {"ItemOID": "IT.ADSL.ITTFL", "OrderNumber": 25, "Mandatory": "No", "MethodOID": "MT.ADSL.ITTFL"}, {"ItemOID": "IT.ADSL.EFFFL", "OrderNumber": 26, "Mandatory": "No", "MethodOID": "MT.ADSL.EFFFL"}, {"ItemOID": "IT.ADSL.COMP8FL", "OrderNumber": 27, "Mandatory": "No", "MethodOID": "MT.ADSL.COMP8FL"}, {"ItemOID": "IT.ADSL.COMP16FL", "OrderNumber": 28, "Mandatory": "No", "MethodOID": "MT.ADSL.COMP16FL"}, {"ItemOID": "IT.ADSL.COMP24FL", "OrderNumber": 29, "Mandatory": "No", "MethodOID": "MT.ADSL.COMP24FL"}, {"ItemOID": "IT.ADSL.DISCONFL", "OrderNumber": 30, "Mandatory": "No", "MethodOID": "MT.ADSL.DISCONFL"}, {"ItemOID": "IT.ADSL.DSRAEFL", "OrderNumber": 31, "Mandatory": "No", "MethodOID": "MT.ADSL.DSRAEFL"}, {"ItemOID": "IT.ADSL.DTHFL", "OrderNumber": 32, "Mandatory": "No"}, {"ItemOID": "IT.ADSL.BMIBL", "OrderNumber": 33, "Mandatory": "No", "MethodOID": "MT.ADSL.BMIBL"}, {"ItemOID": "IT.ADSL.BMIBLGR1", "OrderNumber": 34, "Mandatory": "No", "MethodOID": "MT.ADSL.BMIBLGR1"}, {"ItemOID": "IT.ADSL.HEIGHTBL", "OrderNumber": 35, "Mandatory": "No", "MethodOID": "MT.ADSL.HEIGHTBL"}, {"ItemOID": "IT.ADSL.WEIGHTBL", "OrderNumber": 36, "Mandatory": "No", "MethodOID": "MT.ADSL.WEIGHTBL"}, {"ItemOID": "IT.ADSL.EDUCLVL", "OrderNumber": 37, "Mandatory": "No", "MethodOID": "MT.ADSL.EDUCLVL"}, {"ItemOID": "IT.ADSL.DISONDT", "OrderNumber": 38, "Mandatory": "No", "MethodOID": "MT.ADSL.DISONDT"}, {"ItemOID": "IT.ADSL.DURDIS", "OrderNumber": 39, "Mandatory": "No", "MethodOID": "MT.ADSL.DURDIS"}, {"ItemOID": "IT.ADSL.DURDSGR1", "OrderNumber": 40, "Mandatory": "No", "MethodOID": "MT.ADSL.DURDSGR1"}, {"ItemOID": "IT.ADSL.VISIT1DT", "OrderNumber": 41, "Mandatory": "No", "MethodOID": "MT.ADSL.VISIT1DT"}, {"ItemOID": "IT.ADSL.RFSTDTC", "OrderNumber": 42, "Mandatory": "No"}, {"ItemOID": "IT.ADSL.RFENDTC", "OrderNumber": 43, "Mandatory": "No"}, {"ItemOID": "IT.ADSL.VISNUMEN", "OrderNumber": 44, "Mandatory": "No", "MethodOID": "MT.ADSL.VISNUMEN"}, {"ItemOID": "IT.ADSL.RFENDT", "OrderNumber": 45, "Mandatory": "No", "MethodOID": "MT.ADSL.RFENDT"}, {"ItemOID": "IT.ADSL.EOSSTT", "OrderNumber": 46, "Mandatory": "No", "MethodOID": "MT.ADSL.EOSSTT"}, {"ItemOID": "IT.ADSL.DCSREAS", "OrderNumber": 47, "Mandatory": "No", "MethodOID": "MT.ADSL.DCSREAS"}, {"ItemOID": "IT.ADSL.EOSDISP", "OrderNumber": 48, "Mandatory": "No"}, {"ItemOID": "IT.ADSL.MMS1TSBL", "OrderNumber": 49, "Mandatory": "No", "MethodOID": "MT.ADSL.MMS1TSBL"}], "Class": {"Name": "SUBJECT LEVEL ANALYSIS DATASET"}, "leaf": {"ID": "LF.ADSL", "href": "adsl.xpt", "title": {"_content": "adsl.xpt "}}}, {"OID": "IG.ADQSADAS", "Name": "ADQSADAS", "SASDatasetName": "ADQSADAS", "Repeating": "Yes", "IsReferenceData": "No", "Purpose": "Analysis", "StandardOID": "STD.01", "Structure": "One record per subject per parameter per analysis visit per analysis date", "ArchiveLocationID": "LF.ADQSADAS", "CommentOID": "COM.ADQSADAS", "Description": {"TranslatedText": [{"lang": "en", "_content": "ADAS-Cog Analysis"}]}, "ItemRef": [{"ItemOID": "IT.ADQSADAS.STUDYID", "OrderNumber": 1, "Mandatory": "No", "KeySequence": 1}, {"ItemOID": "IT.ADQSADAS.SITEID", "OrderNumber": 2, "Mandatory": "No"}, {"ItemOID": "IT.ADQSADAS.SITEGR1", "OrderNumber": 3, "Mandatory": "No"}, {"ItemOID": "IT.ADQSADAS.USUBJID", "OrderNumber": 4, "Mandatory": "No", "KeySequence": 2}, {"ItemOID": "IT.ADQSADAS.TRTSDT", "OrderNumber": 5, "Mandatory": "No"}, {"ItemOID": "IT.ADQSADAS.TRTEDT", "OrderNumber": 6, "Mandatory": "No"}, {"ItemOID": "IT.ADQSADAS.TRTP", "OrderNumber": 7, "Mandatory": "No"}, {"ItemOID": "IT.ADQSADAS.TRTPN", "OrderNumber": 8, "Mandatory": "No"}, {"ItemOID": "IT.ADQSADAS.AGE", "OrderNumber": 9, "Mandatory": "No"}, {"ItemOID": "IT.ADQSADAS.AGEGR1", "OrderNumber": 10, "Mandatory": "No"}, {"ItemOID": "IT.ADQSADAS.AGEGR1N", "OrderNumber": 11, "Mandatory": "No"}, {"ItemOID": "IT.ADQSADAS.RACE", "OrderNumber": 12, "Mandatory": "No"}, {"ItemOID": "IT.ADQSADAS.RACEN", "OrderNumber": 13, "Mandatory": "No"}, {"ItemOID": "IT.ADQSADAS.SEX", "OrderNumber": 14, "Mandatory": "No"}, {"ItemOID": "IT.ADQSADAS.ITTFL", "OrderNumber": 15, "Mandatory": "No"}, {"ItemOID": "IT.ADQSADAS.EFFFL", "OrderNumber": 16, "Mandatory": "No"}, {"ItemOID": "IT.ADQSADAS.COMP24FL", "OrderNumber": 17, "Mandatory": "No"}, {"ItemOID": "IT.ADQSADAS.AVISIT", "OrderNumber": 18, "Mandatory": "No", "KeySequence": 4, "MethodOID": "MT.ADQSADAS.AVISIT"}, {"ItemOID": "IT.ADQSADAS.AVISITN", "OrderNumber": 19, "Mandatory": "No"}, {"ItemOID": "IT.ADQSADAS.VISIT", "OrderNumber": 20, "Mandatory": "No"}, {"ItemOID": "IT.ADQSADAS.VISITNUM", "OrderNumber": 21, "Mandatory": "No"}, {"ItemOID": "IT.ADQSADAS.ADY", "OrderNumber": 22, "Mandatory": "No", "MethodOID": "MT.ADQSADAS.ADY"}, {"ItemOID": "IT.ADQSADAS.ADT", "OrderNumber": 23, "Mandatory": "No", "KeySequence": 5, "MethodOID": "MT.ADQSADAS.ADT"}, {"ItemOID": "IT.ADQSADAS.PARAM", "OrderNumber": 24, "Mandatory": "No"}, {"ItemOID": "IT.ADQSADAS.PARAMCD", "OrderNumber": 25, "Mandatory": "No", "KeySequence": 3}, {"ItemOID": "IT.ADQSADAS.PARAMN", "OrderNumber": 26, "Mandatory": "No"}, {"ItemOID": "IT.ADQSADAS.AVAL", "OrderNumber": 27, "Mandatory": "No"}, {"ItemOID": "IT.ADQSADAS.BASE", "OrderNumber": 28, "Mandatory": "No", "MethodOID": "MT.ADQSADAS.BASE"}, {"ItemOID": "IT.ADQSADAS.CHG", "OrderNumber": 29, "Mandatory": "No", "MethodOID": "MT.ADQSADAS.CHG"}, {"ItemOID": "IT.ADQSADAS.PCHG", "OrderNumber": 30, "Mandatory": "No", "MethodOID": "MT.ADQSADAS.PCHG"}, {"ItemOID": "IT.ADQSADAS.ABLFL", "OrderNumber": 31, "Mandatory": "No"}, {"ItemOID": "IT.ADQSADAS.ANL01FL", "OrderNumber": 32, "Mandatory": "No", "MethodOID": "MT.ADQSADAS.ANL01FL"}, {"ItemOID": "IT.ADQSADAS.DTYPE", "OrderNumber": 33, "Mandatory": "No"}, {"ItemOID": "IT.ADQSADAS.AWRANGE", "OrderNumber": 34, "Mandatory": "No"}, {"ItemOID": "IT.ADQSADAS.AWTARGET", "OrderNumber": 35, "Mandatory": "No"}, {"ItemOID": "IT.ADQSADAS.AWTDIFF", "OrderNumber": 36, "Mandatory": "No", "MethodOID": "MT.ADQSADAS.AWTDIFF"}, {"ItemOID": "IT.ADQSADAS.AWLO", "OrderNumber": 37, "Mandatory": "No"}, {"ItemOID": "IT.ADQSADAS.AWHI", "OrderNumber": 38, "Mandatory": "No"}, {"ItemOID": "IT.ADQSADAS.AWU", "OrderNumber": 39, "Mandatory": "No"}, {"ItemOID": "IT.ADQSADAS.QSSEQ", "OrderNumber": 40, "Mandatory": "No"}], "Class": {"Name": "BASIC DATA STRUCTURE"}, "leaf": {"ID": "LF.ADQSADAS", "href": "adqsadas.xpt", "title": {"_content": "adqsadas.xpt "}}}, {"OID": "IG.ADAE", "Name": "ADAE", "SASDatasetName": "ADAE", "Repeating": "Yes", "IsReferenceData": "No", "Purpose": "Analysis", "StandardOID": "STD.01", "Structure": "one record per subject per adverse event", "ArchiveLocationID": "LF.ADAE", "CommentOID": "COM.ADAE", "Description": {"TranslatedText": [{"lang": "en", "_content": "Adverse Events Analysis Dataset"}]}, "ItemRef": [{"ItemOID": "IT.ADAE.STUDYID", "OrderNumber": 1, "Mandatory": "No", "KeySequence": 1}, {"ItemOID": "IT.ADAE.SITEID", "OrderNumber": 2, "Mandatory": "No"}, {"ItemOID": "IT.ADAE.USUBJID", "OrderNumber": 3, "Mandatory": "No", "KeySequence": 2}, {"ItemOID": "IT.ADAE.TRTA", "OrderNumber": 4, "Mandatory": "No"}, {"ItemOID": "IT.ADAE.TRTAN", "OrderNumber": 5, "Mandatory": "No"}, {"ItemOID": "IT.ADAE.AGE", "OrderNumber": 6, "Mandatory": "No"}, {"ItemOID": "IT.ADAE.AGEGR1", "OrderNumber": 7, "Mandatory": "No"}, {"ItemOID": "IT.ADAE.AGEGR1N", "OrderNumber": 8, "Mandatory": "No"}, {"ItemOID": "IT.ADAE.RACE", "OrderNumber": 9, "Mandatory": "No"}, {"ItemOID": "IT.ADAE.RACEN", "OrderNumber": 10, "Mandatory": "No"}, {"ItemOID": "IT.ADAE.SEX", "OrderNumber": 11, "Mandatory": "No"}, {"ItemOID": "IT.ADAE.SAFFL", "OrderNumber": 12, "Mandatory": "No"}, {"ItemOID": "IT.ADAE.TRTSDT", "OrderNumber": 13, "Mandatory": "No"}, {"ItemOID": "IT.ADAE.TRTEDT", "OrderNumber": 14, "Mandatory": "No"}, {"ItemOID": "IT.ADAE.ASTDT", "OrderNumber": 15, "Mandatory": "No", "KeySequence": 4, "MethodOID": "MT.ADAE.ASTDT"}, {"ItemOID": "IT.ADAE.ASTDTF", "OrderNumber": 16, "Mandatory": "No", "MethodOID": "MT.ADAE.ASTDTF"}, {"ItemOID": "IT.ADAE.ASTDY", "OrderNumber": 17, "Mandatory": "No", "MethodOID": "MT.ADAE.ASTDY"}, {"ItemOID": "IT.ADAE.AENDT", "OrderNumber": 18, "Mandatory": "No", "MethodOID": "MT.ADAE.AENDT"}, {"ItemOID": "IT.ADAE.AENDY", "OrderNumber": 19, "Mandatory": "No", "MethodOID": "MT.ADAE.AENDY"}, {"ItemOID": "IT.ADAE.ADURN", "OrderNumber": 20, "Mandatory": "No", "MethodOID": "MT.ADAE.ADURN"}, {"ItemOID": "IT.ADAE.ADURU", "OrderNumber": 21, "Mandatory": "No", "MethodOID": "MT.ADAE.ADURU"}, {"ItemOID": "IT.ADAE.AETERM", "OrderNumber": 22, "Mandatory": "No", "KeySequence": 3}, {"ItemOID": "IT.ADAE.AELLT", "OrderNumber": 23, "Mandatory": "No"}, {"ItemOID": "IT.ADAE.AELLTCD", "OrderNumber": 24, "Mandatory": "No"}, {"ItemOID": "IT.ADAE.AEDECOD", "OrderNumber": 25, "Mandatory": "No"}, {"ItemOID": "IT.ADAE.AEPTCD", "OrderNumber": 26, "Mandatory": "No"}, {"ItemOID": "IT.ADAE.AEHLT", "OrderNumber": 27, "Mandatory": "No"}, {"ItemOID": "IT.ADAE.AEHLTCD", "OrderNumber": 28, "Mandatory": "No"}, {"ItemOID": "IT.ADAE.AEHLGT", "OrderNumber": 29, "Mandatory": "No"}, {"ItemOID": "IT.ADAE.AEHLGTCD", "OrderNumber": 30, "Mandatory": "No"}, {"ItemOID": "IT.ADAE.AEBODSYS", "OrderNumber": 31, "Mandatory": "No"}, {"ItemOID": "IT.ADAE.AESOC", "OrderNumber": 32, "Mandatory": "No"}, {"ItemOID": "IT.ADAE.AESOCCD", "OrderNumber": 33, "Mandatory": "No"}, {"ItemOID": "IT.ADAE.AESEV", "OrderNumber": 34, "Mandatory": "No"}, {"ItemOID": "IT.ADAE.AESER", "OrderNumber": 35, "Mandatory": "No"}, {"ItemOID": "IT.ADAE.AESCAN", "OrderNumber": 36, "Mandatory": "No"}, {"ItemOID": "IT.ADAE.AESCONG", "OrderNumber": 37, "Mandatory": "No"}, {"ItemOID": "IT.ADAE.AESDISAB", "OrderNumber": 38, "Mandatory": "No"}, {"ItemOID": "IT.ADAE.AESDTH", "OrderNumber": 39, "Mandatory": "No"}, {"ItemOID": "IT.ADAE.AESHOSP", "OrderNumber": 40, "Mandatory": "No"}, {"ItemOID": "IT.ADAE.AESLIFE", "OrderNumber": 41, "Mandatory": "No"}, {"ItemOID": "IT.ADAE.AESOD", "OrderNumber": 42, "Mandatory": "No"}, {"ItemOID": "IT.ADAE.AEREL", "OrderNumber": 43, "Mandatory": "No"}, {"ItemOID": "IT.ADAE.AEACN", "OrderNumber": 44, "Mandatory": "No"}, {"ItemOID": "IT.ADAE.AEOUT", "OrderNumber": 45, "Mandatory": "No"}, {"ItemOID": "IT.ADAE.AESEQ", "OrderNumber": 46, "Mandatory": "No", "KeySequence": 5}, {"ItemOID": "IT.ADAE.TRTEMFL", "OrderNumber": 47, "Mandatory": "No", "MethodOID": "MT.ADAE.TRTEMFL"}, {"ItemOID": "IT.ADAE.AOCCFL", "OrderNumber": 48, "Mandatory": "No", "MethodOID": "MT.ADAE.AOCCFL"}, {"ItemOID": "IT.ADAE.AOCCSFL", "OrderNumber": 49, "Mandatory": "No", "MethodOID": "MT.ADAE.AOCCSFL"}, {"ItemOID": "IT.ADAE.AOCCPFL", "OrderNumber": 50, "Mandatory": "No", "MethodOID": "MT.ADAE.AOCCPFL"}, {"ItemOID": "IT.ADAE.AOCC02FL", "OrderNumber": 51, "Mandatory": "No", "MethodOID": "MT.ADAE.AOCC02FL"}, {"ItemOID": "IT.ADAE.AOCC03FL", "OrderNumber": 52, "Mandatory": "No", "MethodOID": "MT.ADAE.AOCC03FL"}, {"ItemOID": "IT.ADAE.AOCC04FL", "OrderNumber": 53, "Mandatory": "No", "MethodOID": "MT.ADAE.AOCC04FL"}, {"ItemOID": "IT.ADAE.CQ01NAM", "OrderNumber": 54, "Mandatory": "No", "MethodOID": "MT.ADAE.CQ01NAM"}, {"ItemOID": "IT.ADAE.AOCC01FL", "OrderNumber": 55, "Mandatory": "No", "MethodOID": "MT.ADAE.AOCC01FL"}], "Class": {"Name": "OCCURRENCE DATA STRUCTURE", "SubClass": [{"Name": "ADVERSE EVENT"}]}, "leaf": {"ID": "LF.ADAE", "href": "adae.xpt", "title": {"_content": "adae.xpt "}}}], "ItemDef": [{"OID": "IT.ADQSADAS.STUDYID", "Name": "STUDYID", "SASFieldName": "STUDYID", "DataType": "text", "Length": 12, "Description": {"TranslatedText": [{"lang": "en", "_content": "Study Identifier"}]}, "Origin": [{"Type": "Predecessor", "Description": {"TranslatedText": [{"lang": "en", "_content": "ADSL.STUDYID"}]}}]}, {"OID": "IT.ADQSADAS.SITEID", "Name": "SITEID", "SASFieldName": "SITEID", "DataType": "text", "Length": 3, "Description": {"TranslatedText": [{"lang": "en", "_content": "Study Site Identifier"}]}, "Origin": [{"Type": "Predecessor", "Description": {"TranslatedText": [{"lang": "en", "_content": "ADSL.SITEID"}]}}]}, {"OID": "IT.ADQSADAS.SITEGR1", "Name": "SITEGR1", "SASFieldName": "SITEGR1", "DataType": "text", "Length": 3, "Description": {"TranslatedText": [{"lang": "en", "_content": "Pooled Site Group 1"}]}, "Origin": [{"Type": "Predecessor", "Description": {"TranslatedText": [{"lang": "en", "_content": "ADSL.SITEGR1"}]}}]}, {"OID": "IT.ADQSADAS.USUBJID", "Name": "USUBJID", "SASFieldName": "USUBJID", "DataType": "text", "Length": 11, "Description": {"TranslatedText": [{"lang": "en", "_content": "Unique Subject Identifier"}]}, "Origin": [{"Type": "Predecessor", "Description": {"TranslatedText": [{"lang": "en", "_content": "ADSL.USUBJID"}]}}]}, {"OID": "IT.ADQSADAS.TRTSDT", "Name": "TRTSDT", "SASFieldName": "TRTSDT", "DataType": "integer", "Length": 5, "DisplayFormat": "date9.", "Description": {"TranslatedText": [{"lang": "en", "_content": "Date of First Exposure to Treatment"}]}, "Origin": [{"Type": "Predecessor", "Description": {"TranslatedText": [{"lang": "en", "_content": "ADSL.TRTSDT"}]}}]}, {"OID": "IT.ADQSADAS.TRTEDT", "Name": "TRTEDT", "SASFieldName": "TRTEDT", "DataType": "integer", "Length": 5, "DisplayFormat": "date9.", "Description": {"TranslatedText": [{"lang": "en", "_content": "Date of Last Exposure to Treatment"}]}, "Origin": [{"Type": "Predecessor", "Description": {"TranslatedText": [{"lang": "en", "_content": "ADSL.TRTEDT"}]}}]}, {"OID": "IT.ADQSADAS.TRTP", "Name": "TRTP", "SASFieldName": "TRTP", "DataType": "text", "Length": 20, "Description": {"TranslatedText": [{"lang": "en", "_content": "Planned Treatment"}]}, "CodeListRef": {"CodeListOID": "CL.ARM"}, "Origin": [{"Type": "Predecessor", "Description": {"TranslatedText": [{"lang": "en", "_content": "ADSL.TRT01P"}]}}]}, {"OID": "IT.ADQSADAS.TRTPN", "Name": "TRTPN", "SASFieldName": "TRTPN", "DataType": "integer", "Length": 2, "Description": {"TranslatedText": [{"lang": "en", "_content": "Planned Treatment (N)"}]}, "CodeListRef": {"CodeListOID": "CL.ARMN"}, "Origin": [{"Type": "Predecessor", "Description": {"TranslatedText": [{"lang": "en", "_content": "ADSL.TRT01PN"}]}}]}, {"OID": "IT.ADQSADAS.AGE", "Name": "AGE", "SASFieldName": "AGE", "DataType": "integer", "Length": 2, "Description": {"TranslatedText": [{"lang": "en", "_content": "Age"}]}, "Origin": [{"Type": "Predecessor", "Description": {"TranslatedText": [{"lang": "en", "_content": "ADSL.AGE"}]}}]}, {"OID": "IT.ADQSADAS.AGEGR1", "Name": "AGEGR1", "SASFieldName": "AGEGR1", "DataType": "text", "Length": 5, "Description": {"TranslatedText": [{"lang": "en", "_content": "Pooled Age Group 1"}]}, "CodeListRef": {"CodeListOID": "CL.AGEGR1"}, "Origin": [{"Type": "Predecessor", "Description": {"TranslatedText": [{"lang": "en", "_content": "ADSL.AGEGR1"}]}}]}, {"OID": "IT.ADQSADAS.AGEGR1N", "Name": "AGEGR1N", "SASFieldName": "AGEGR1N", "DataType": "integer", "Length": 1, "Description": {"TranslatedText": [{"lang": "en", "_content": "Pooled Age Group 1 (N)"}]}, "CodeListRef": {"CodeListOID": "CL.AGEGR1N"}, "Origin": [{"Type": "Predecessor", "Description": {"TranslatedText": [{"lang": "en", "_content": "ADSL.AGEGR1N"}]}}]}, {"OID": "IT.ADQSADAS.RACE", "Name": "RACE", "SASFieldName": "RACE", "DataType": "text", "Length": 32, "Description": {"TranslatedText": [{"lang": "en", "_content": "Race"}]}, "CodeListRef": {"CodeListOID": "CL.RACE"}, "Origin": [{"Type": "Predecessor", "Description": {"TranslatedText": [{"lang": "en", "_content": "ADSL.RACE"}]}}]}, {"OID": "IT.ADQSADAS.RACEN", "Name": "RACEN", "SASFieldName": "RACEN", "DataType": "integer", "Length": 1, "Description": {"TranslatedText": [{"lang": "en", "_content": "Race (N)"}]}, "CodeListRef": {"CodeListOID": "CL.RACEN"}, "Origin": [{"Type": "Predecessor", "Description": {"TranslatedText": [{"lang": "en", "_content": "ADSL.RACEN"}]}}]}, {"OID": "IT.ADQSADAS.SEX", "Name": "SEX", "SASFieldName": "SEX", "DataType": "text", "Length": 1, "Description": {"TranslatedText": [{"lang": "en", "_content": "Sex"}]}, "CodeListRef": {"CodeListOID": "CL.SEX"}, "Origin": [{"Type": "Predecessor", "Description": {"TranslatedText": [{"lang": "en", "_content": "ADSL.SEX"}]}}]}, {"OID": "IT.ADQSADAS.ITTFL", "Name": "ITTFL", "SASFieldName": "ITTFL", "DataType": "text", "Length": 1, "Description": {"TranslatedText": [{"lang": "en", "_content": "Intent-To-Treat Population Flag"}]}, "CodeListRef": {"CodeListOID": "CL.YN"}, "Origin": [{"Type": "Predecessor", "Description": {"TranslatedText": [{"lang": "en", "_content": "ADSL.ITTFL"}]}}]}, {"OID": "IT.ADQSADAS.EFFFL", "Name": "EFFFL", "SASFieldName": "EFFFL", "DataType": "text", "Length": 1, "Description": {"TranslatedText": [{"lang": "en", "_content": "Efficacy Population Flag"}]}, "CodeListRef": {"CodeListOID": "CL.YN"}, "Origin": [{"Type": "Predecessor", "Description": {"TranslatedText": [{"lang": "en", "_content": "ADSL.FASFL"}]}}]}, {"OID": "IT.ADQSADAS.COMP24FL", "Name": "COMP24FL", "SASFieldName": "COMP24FL", "DataType": "text", "Length": 1, "Description": {"TranslatedText": [{"lang": "en", "_content": "Completers of Week 24 Population Flag"}]}, "CodeListRef": {"CodeListOID": "CL.YN"}, "Origin": [{"Type": "Predecessor", "Description": {"TranslatedText": [{"lang": "en", "_content": "ADSL.COMP24FL"}]}}]}, {"OID": "IT.ADQSADAS.AVISIT", "Name": "AVISIT", "SASFieldName": "AVISIT", "DataType": "text", "Length": 16, "Description": {"TranslatedText": [{"lang": "en", "_content": "Analysis Visit"}]}, "CodeListRef": {"CodeListOID": "CL.AVISIT"}, "Origin": [{"Type": "Derived", "Source": "Sponsor"}]}, {"OID": "IT.ADQSADAS.AVISITN", "Name": "AVISITN", "SASFieldName": "AVISITN", "DataType": "integer", "Length": 5, "CommentOID": "COM.ADQSADAS.AVISITN", "Description": {"TranslatedText": [{"lang": "en", "_content": "Analysis Visit (N)"}]}, "CodeListRef": {"CodeListOID": "CL.AVISITN"}, "Origin": [{"Type": "Assigned", "Source": "Sponsor"}]}, {"OID": "IT.ADQSADAS.VISIT", "Name": "VISIT", "SASFieldName": "VISIT", "DataType": "text", "Length": 19, "Description": {"TranslatedText": [{"lang": "en", "_content": "Visit Name"}]}, "CodeListRef": {"CodeListOID": "CL.VISIT"}, "Origin": [{"Type": "Predecessor", "Description": {"TranslatedText": [{"lang": "en", "_content": "QS.VISIT"}]}}]}, {"OID": "IT.ADQSADAS.VISITNUM", "Name": "VISITNUM", "SASFieldName": "VISITNUM", "DataType": "float", "Length": 4, "DisplayFormat": "5.1", "SignificantDigits": 1, "Description": {"TranslatedText": [{"lang": "en", "_content": "Visit Number"}]}, "CodeListRef": {"CodeListOID": "CL.VISITNUM"}, "Origin": [{"Type": "Predecessor", "Description": {"TranslatedText": [{"lang": "en", "_content": "QS.VISITNUM"}]}}]}, {"OID": "IT.ADQSADAS.ADY", "Name": "ADY", "SASFieldName": "ADY", "DataType": "integer", "Length": 3, "Description": {"TranslatedText": [{"lang": "en", "_content": "Analysis Relative Day"}]}, "Origin": [{"Type": "Derived", "Source": "Sponsor"}]}, {"OID": "IT.ADQSADAS.ADT", "Name": "ADT", "SASFieldName": "ADT", "DataType": "integer", "Length": 5, "DisplayFormat": "date9.", "Description": {"TranslatedText": [{"lang": "en", "_content": "Analysis Date"}]}, "Origin": [{"Type": "Derived", "Source": "Sponsor"}]}, {"OID": "IT.ADQSADAS.PARAM", "Name": "PARAM", "SASFieldName": "PARAM", "DataType": "text", "Length": 100, "Description": {"TranslatedText": [{"lang": "en", "_content": "Parameter"}]}, "CodeListRef": {"CodeListOID": "CL.PARAM_ADQSADAS"}, "Origin": [{"Type": "Assigned", "Source": "Sponsor"}]}, {"OID": "IT.ADQSADAS.PARAMCD", "Name": "PARAMCD", "SASFieldName": "PARAMCD", "DataType": "text", "Length": 8, "Description": {"TranslatedText": [{"lang": "en", "_content": "Parameter Code"}]}, "CodeListRef": {"CodeListOID": "CL.PARAMCD_ADQSADAS"}, "Origin": [{"Type": "Assigned", "Source": "Sponsor"}]}, {"OID": "IT.ADQSADAS.PARAMN", "Name": "PARAMN", "SASFieldName": "PARAMN", "DataType": "integer", "Length": 2, "CommentOID": "COM.ADQSADAS.PARAMN", "Description": {"TranslatedText": [{"lang": "en", "_content": "Parameter (N)"}]}, "CodeListRef": {"CodeListOID": "CL.PARAMN_ADQSADAS"}, "Origin": [{"Type": "Assigned", "Source": "Sponsor"}]}, {"OID": "IT.ADQSADAS.AVAL", "Name": "AVAL", "SASFieldName": "AVAL", "DataType": "integer", "Length": 3, "Description": {"TranslatedText": [{"lang": "en", "_content": "Analysis Value"}]}, "ValueListRef": {"ValueListOID": "VL.ADQSADAS.AVAL"}}, {"OID": "IT.ADQSADAS.BASE", "Name": "BASE", "SASFieldName": "BASE", "DataType": "integer", "Length": 2, "Description": {"TranslatedText": [{"lang": "en", "_content": "Baseline Value"}]}, "Origin": [{"Type": "Derived", "Source": "Sponsor"}]}, {"OID": "IT.ADQSADAS.CHG", "Name": "CHG", "SASFieldName": "CHG", "DataType": "integer", "Length": 8, "Description": {"TranslatedText": [{"lang": "en", "_content": "Change from Baseline"}]}, "Origin": [{"Type": "Derived", "Source": "Sponsor"}]}, {"OID": "IT.ADQSADAS.PCHG", "Name": "PCHG", "SASFieldName": "PCHG", "DataType": "integer", "Length": 8, "Description": {"TranslatedText": [{"lang": "en", "_content": "Percent Change from Baseline"}]}, "Origin": [{"Type": "Derived", "Source": "Sponsor"}]}, {"OID": "IT.ADQSADAS.ABLFL", "Name": "ABLFL", "SASFieldName": "ABLFL", "DataType": "text", "Length": 1, "Description": {"TranslatedText": [{"lang": "en", "_content": "Baseline Record Flag"}]}, "CodeListRef": {"CodeListOID": "CL.Y_BLANK"}, "Origin": [{"Type": "Predecessor", "Description": {"TranslatedText": [{"lang": "en", "_content": "QS.QSBLFL"}]}}]}, {"OID": "IT.ADQSADAS.ANL01FL", "Name": "ANL01FL", "SASFieldName": "ANL01FL", "DataType": "text", "Length": 1, "Description": {"TranslatedText": [{"lang": "en", "_content": "Analysis Flag 01"}]}, "CodeListRef": {"CodeListOID": "CL.Y_BLANK"}, "Origin": [{"Type": "Derived", "Source": "Sponsor"}]}, {"OID": "IT.ADQSADAS.DTYPE", "Name": "DTYPE", "SASFieldName": "DTYPE", "DataType": "text", "Length": 7, "Description": {"TranslatedText": [{"lang": "en", "_content": "Derivation Type"}]}, "CodeListRef": {"CodeListOID": "CL.DTYPE"}, "ValueListRef": {"ValueListOID": "VL.ADQSADAS.DTYPE"}}, {"OID": "IT.ADQSADAS.AWRANGE", "Name": "AWRANGE", "SASFieldName": "AWRANGE", "DataType": "text", "Length": 9, "CommentOID": "COM.ADQSADAS.AWRANGE", "Description": {"TranslatedText": [{"lang": "en", "_content": "Analysis Window Valid Relative Range"}]}, "CodeListRef": {"CodeListOID": "CL.AWRANGE_ADQSADAS"}, "Origin": [{"Type": "Assigned", "Source": "Sponsor"}]}, {"OID": "IT.ADQSADAS.AWTARGET", "Name": "AWTARGET", "SASFieldName": "AWTARGET", "DataType": "integer", "Length": 8, "CommentOID": "COM.ADQSADAS.AWTARGET", "Description": {"TranslatedText": [{"lang": "en", "_content": "Analysis Window Target"}]}, "Origin": [{"Type": "Assigned", "Source": "Sponsor"}]}, {"OID": "IT.ADQSADAS.AWTDIFF", "Name": "AWTDIFF", "SASFieldName": "AWTDIFF", "DataType": "integer", "Length": 8, "Description": {"TranslatedText": [{"lang": "en", "_content": "Analysis Window Diff from Target"}]}, "Origin": [{"Type": "Derived", "Source": "Sponsor"}]}, {"OID": "IT.ADQSADAS.AWLO", "Name": "AWLO", "SASFieldName": "AWLO", "DataType": "integer", "Length": 8, "CommentOID": "COM.ADQSADAS.AWLO", "Description": {"TranslatedText": [{"lang": "en", "_content": "Analysis Window Beginning Timepoint"}]}, "Origin": [{"Type": "Assigned", "Source": "Sponsor"}]}, {"OID": "IT.ADQSADAS.AWHI", "Name": "AWHI", "SASFieldName": "AWHI", "DataType": "integer", "Length": 8, "CommentOID": "COM.ADQSADAS.AWHI", "Description": {"TranslatedText": [{"lang": "en", "_content": "Analysis Window Ending Timepoint"}]}, "Origin": [{"Type": "Assigned", "Source": "Sponsor"}]}, {"OID": "IT.ADQSADAS.AWU", "Name": "AWU", "SASFieldName": "AWU", "DataType": "text", "Length": 4, "CommentOID": "COM.ADQSADAS.AWU", "Description": {"TranslatedText": [{"lang": "en", "_content": "Analysis Window Unit"}]}, "CodeListRef": {"CodeListOID": "CL.AWU"}, "Origin": [{"Type": "Assigned", "Source": "Sponsor"}]}, {"OID": "IT.ADQSADAS.QSSEQ", "Name": "QSSEQ", "SASFieldName": "QSSEQ", "DataType": "integer", "Length": 4, "Description": {"TranslatedText": [{"lang": "en", "_content": "Sequence Number"}]}, "ValueListRef": {"ValueListOID": "VL.ADQSADAS.QSSEQ"}}, {"OID": "IT.ADSL.STUDYID", "Name": "STUDYID", "SASFieldName": "STUDYID", "DataType": "text", "Length": 12, "Description": {"TranslatedText": [{"lang": "en", "_content": "Study Identifier"}]}, "Origin": [{"Type": "Predecessor", "Description": {"TranslatedText": [{"lang": "en", "_content": "DM.STUDYID"}]}}]}, {"OID": "IT.ADSL.USUBJID", "Name": "USUBJID", "SASFieldName": "USUBJID", "DataType": "text", "Length": 11, "Description": {"TranslatedText": [{"lang": "en", "_content": "Unique Subject Identifier"}]}, "Origin": [{"Type": "Predecessor", "Description": {"TranslatedText": [{"lang": "en", "_content": "DM.USUBJID"}]}}]}, {"OID": "IT.ADSL.SUBJID", "Name": "SUBJID", "SASFieldName": "SUBJID", "DataType": "text", "Length": 4, "Description": {"TranslatedText": [{"lang": "en", "_content": "Subject Identifier for the Study"}]}, "Origin": [{"Type": "Predecessor", "Description": {"TranslatedText": [{"lang": "en", "_content": "DM.SUBJID"}]}}]}, {"OID": "IT.ADSL.SITEID", "Name": "SITEID", "SASFieldName": "SITEID", "DataType": "text", "Length": 3, "Description": {"TranslatedText": [{"lang": "en", "_content": "Study Site Identifier"}]}, "Origin": [{"Type": "Predecessor", "Description": {"TranslatedText": [{"lang": "en", "_content": "DM.SITEID"}]}}]}, {"OID": "IT.ADSL.SITEGR1", "Name": "SITEGR1", "SASFieldName": "SITEGR1", "DataType": "text", "Length": 3, "Description": {"TranslatedText": [{"lang": "en", "_content": "Pooled Site Group 1"}]}, "Origin": [{"Type": "Derived", "Source": "Sponsor"}]}, {"OID": "IT.ADSL.ARM", "Name": "ARM", "SASFieldName": "ARM", "DataType": "text", "Length": 20, "Description": {"TranslatedText": [{"lang": "en", "_content": "Description of Planned Arm"}]}, "CodeListRef": {"CodeListOID": "CL.ARM"}, "Origin": [{"Type": "Predecessor", "Description": {"TranslatedText": [{"lang": "en", "_content": "DM.ARM"}]}}]}, {"OID": "IT.ADSL.TRT01P", "Name": "TRT01P", "SASFieldName": "TRT01P", "DataType": "text", "Length": 20, "Description": {"TranslatedText": [{"lang": "en", "_content": "Planned Treatment for Period 01"}]}, "CodeListRef": {"CodeListOID": "CL.ARM"}, "Origin": [{"Type": "Predecessor", "Description": {"TranslatedText": [{"lang": "en", "_content": "DM.ARM"}]}}]}, {"OID": "IT.ADSL.TRT01PN", "Name": "TRT01PN", "SASFieldName": "TRT01PN", "DataType": "integer", "Length": 2, "CommentOID": "COM.ADSL.TRT01PN", "Description": {"TranslatedText": [{"lang": "en", "_content": "Planned Treatment for Period 01 (N)"}]}, "CodeListRef": {"CodeListOID": "CL.ARMN"}, "Origin": [{"Type": "Assigned", "Source": "Sponsor"}]}, {"OID": "IT.ADSL.TRT01A", "Name": "TRT01A", "SASFieldName": "TRT01A", "DataType": "text", "Length": 20, "CommentOID": "COM.ADSL.TRT01A", "Description": {"TranslatedText": [{"lang": "en", "_content": "Actual Treatment for Period 01"}]}, "CodeListRef": {"CodeListOID": "CL.ARM"}, "Origin": [{"Type": "Assigned", "Source": "Sponsor"}]}, {"OID": "IT.ADSL.TRT01AN", "Name": "TRT01AN", "SASFieldName": "TRT01AN", "DataType": "integer", "Length": 2, "CommentOID": "COM.ADSL.TRT01AN", "Description": {"TranslatedText": [{"lang": "en", "_content": "Actual Treatment for Period 01 (N)"}]}, "CodeListRef": {"CodeListOID": "CL.ARMN"}, "Origin": [{"Type": "Assigned", "Source": "Sponsor"}]}, {"OID": "IT.ADSL.TRTSDT", "Name": "TRTSDT", "SASFieldName": "TRTSDT", "DataType": "integer", "Length": 5, "DisplayFormat": "date9.", "Description": {"TranslatedText": [{"lang": "en", "_content": "Date of First Exposure to Treatment"}]}, "Origin": [{"Type": "Derived", "Source": "Sponsor"}]}, {"OID": "IT.ADSL.TRTEDT", "Name": "TRTEDT", "SASFieldName": "TRTEDT", "DataType": "integer", "Length": 5, "DisplayFormat": "date9.", "Description": {"TranslatedText": [{"lang": "en", "_content": "Date of Last Exposure to Treatment"}]}, "Origin": [{"Type": "Derived", "Source": "Sponsor"}]}, {"OID": "IT.ADSL.TRTDURD", "Name": "TRTDURD", "SASFieldName": "TRTDURD", "DataType": "integer", "Length": 3, "Description": {"TranslatedText": [{"lang": "en", "_content": "Total Treatment Duration (Days)"}]}, "Origin": [{"Type": "Derived", "Source": "Sponsor"}]}, {"OID": "IT.ADSL.AVGDD", "Name": "AVGDD", "SASFieldName": "AVGDD", "DataType": "float", "Length": 4, "DisplayFormat": "5.1", "SignificantDigits": 1, "Description": {"TranslatedText": [{"lang": "en", "_content": "Avg Daily Dose (as planned)"}]}, "Origin": [{"Type": "Derived", "Source": "Sponsor"}]}, {"OID": "IT.ADSL.CUMDOSE", "Name": "CUMDOSE", "SASFieldName": "CUMDOSE", "DataType": "float", "Length": 7, "DisplayFormat": "8.1", "SignificantDigits": 1, "Description": {"TranslatedText": [{"lang": "en", "_content": "Cumulative Dose (as planned)"}]}, "Origin": [{"Type": "Derived", "Source": "Sponsor"}]}, {"OID": "IT.ADSL.AGE", "Name": "AGE", "SASFieldName": "AGE", "DataType": "integer", "Length": 2, "Description": {"TranslatedText": [{"lang": "en", "_content": "Age"}]}, "Origin": [{"Type": "Predecessor", "Description": {"TranslatedText": [{"lang": "en", "_content": "DM.AGE"}]}}]}, {"OID": "IT.ADSL.AGEGR1", "Name": "AGEGR1", "SASFieldName": "AGEGR1", "DataType": "text", "Length": 5, "Description": {"TranslatedText": [{"lang": "en", "_content": "Pooled Age Group 1"}]}, "CodeListRef": {"CodeListOID": "CL.AGEGR1"}, "Origin": [{"Type": "Derived", "Source": "Sponsor"}]}, {"OID": "IT.ADSL.AGEGR1N", "Name": "AGEGR1N", "SASFieldName": "AGEGR1N", "DataType": "integer", "Length": 2, "CommentOID": "COM.ADSL.AGEGR1N", "Description": {"TranslatedText": [{"lang": "en", "_content": "Pooled Age Group 1 (N)"}]}, "CodeListRef": {"CodeListOID": "CL.AGEGR1N"}, "Origin": [{"Type": "Assigned", "Source": "Sponsor"}]}, {"OID": "IT.ADSL.AGEU", "Name": "AGEU", "SASFieldName": "AGEU", "DataType": "text", "Length": 5, "Description": {"TranslatedText": [{"lang": "en", "_content": "Age Units"}]}, "CodeListRef": {"CodeListOID": "CL.AGEU"}, "Origin": [{"Type": "Predecessor", "Description": {"TranslatedText": [{"lang": "en", "_content": "DM.AGEU"}]}}]}, {"OID": "IT.ADSL.RACE", "Name": "RACE", "SASFieldName": "RACE", "DataType": "text", "Length": 32, "Description": {"TranslatedText": [{"lang": "en", "_content": "Race"}]}, "CodeListRef": {"CodeListOID": "CL.RACE"}, "Origin": [{"Type": "Predecessor", "Description": {"TranslatedText": [{"lang": "en", "_content": "DM.RACE"}]}}]}, {"OID": "IT.ADSL.RACEN", "Name": "RACEN", "SASFieldName": "RACEN", "DataType": "integer", "Length": 1, "CommentOID": "COM.ADSL.RACEN", "Description": {"TranslatedText": [{"lang": "en", "_content": "Race (N)"}]}, "CodeListRef": {"CodeListOID": "CL.RACEN"}, "Origin": [{"Type": "Assigned", "Source": "Sponsor"}]}, {"OID": "IT.ADSL.SEX", "Name": "SEX", "SASFieldName": "SEX", "DataType": "text", "Length": 1, "Description": {"TranslatedText": [{"lang": "en", "_content": "Sex"}]}, "CodeListRef": {"CodeListOID": "CL.SEX"}, "Origin": [{"Type": "Predecessor", "Description": {"TranslatedText": [{"lang": "en", "_content": "DM.SEX"}]}}]}, {"OID": "IT.ADSL.ETHNIC", "Name": "ETHNIC", "SASFieldName": "ETHNIC", "DataType": "text", "Length": 22, "Description": {"TranslatedText": [{"lang": "en", "_content": "Ethnicity"}]}, "CodeListRef": {"CodeListOID": "CL.ETHNIC"}, "Origin": [{"Type": "Predecessor", "Description": {"TranslatedText": [{"lang": "en", "_content": "DM.ETHNIC"}]}}]}, {"OID": "IT.ADSL.SAFFL", "Name": "SAFFL", "SASFieldName": "SAFFL", "DataType": "text", "Length": 1, "Description": {"TranslatedText": [{"lang": "en", "_content": "Safety Population Flag"}]}, "CodeListRef": {"CodeListOID": "CL.YN"}, "Origin": [{"Type": "Derived", "Source": "Sponsor"}]}, {"OID": "IT.ADSL.ITTFL", "Name": "ITTFL", "SASFieldName": "ITTFL", "DataType": "text", "Length": 1, "Description": {"TranslatedText": [{"lang": "en", "_content": "Intent-To-Treat Population Flag"}]}, "CodeListRef": {"CodeListOID": "CL.YN"}, "Origin": [{"Type": "Derived", "Source": "Sponsor"}]}, {"OID": "IT.ADSL.EFFFL", "Name": "EFFFL", "SASFieldName": "EFFFL", "DataType": "text", "Length": 1, "Description": {"TranslatedText": [{"lang": "en", "_content": "Efficacy Population Flag"}]}, "CodeListRef": {"CodeListOID": "CL.YN"}, "Origin": [{"Type": "Derived", "Source": "Sponsor"}]}, {"OID": "IT.ADSL.COMP8FL", "Name": "COMP8FL", "SASFieldName": "COMP8FL", "DataType": "text", "Length": 1, "Description": {"TranslatedText": [{"lang": "en", "_content": "Completers of Week 8 Population Flag"}]}, "CodeListRef": {"CodeListOID": "CL.YN"}, "Origin": [{"Type": "Derived", "Source": "Sponsor"}]}, {"OID": "IT.ADSL.COMP16FL", "Name": "COMP16FL", "SASFieldName": "COMP16FL", "DataType": "text", "Length": 1, "Description": {"TranslatedText": [{"lang": "en", "_content": "Completers of Week 16 Population Flag"}]}, "CodeListRef": {"CodeListOID": "CL.YN"}, "Origin": [{"Type": "Derived", "Source": "Sponsor"}]}, {"OID": "IT.ADSL.COMP24FL", "Name": "COMP24FL", "SASFieldName": "COMP24FL", "DataType": "text", "Length": 1, "Description": {"TranslatedText": [{"lang": "en", "_content": "Completers of Week 24 Population Flag"}]}, "CodeListRef": {"CodeListOID": "CL.YN"}, "Origin": [{"Type": "Derived", "Source": "Sponsor"}]}, {"OID": "IT.ADSL.DISCONFL", "Name": "DISCONFL", "SASFieldName": "DISCONFL", "DataType": "text", "Length": 1, "Description": {"TranslatedText": [{"lang": "en", "_content": "Subject Discontinued Study Flag"}]}, "CodeListRef": {"CodeListOID": "CL.Y_BLANK"}, "Origin": [{"Type": "Derived", "Source": "Sponsor"}]}, {"OID": "IT.ADSL.DSRAEFL", "Name": "DSRAEFL", "SASFieldName": "DSRAEFL", "DataType": "text", "Length": 1, "Description": {"TranslatedText": [{"lang": "en", "_content": "Subject Discontinued due to AE Flag"}]}, "CodeListRef": {"CodeListOID": "CL.Y_BLANK"}, "Origin": [{"Type": "Derived", "Source": "Sponsor"}]}, {"OID": "IT.ADSL.DTHFL", "Name": "DTHFL", "SASFieldName": "DTHFL", "DataType": "text", "Length": 1, "Description": {"TranslatedText": [{"lang": "en", "_content": "Subject Death Flag"}]}, "CodeListRef": {"CodeListOID": "CL.Y_BLANK"}, "Origin": [{"Type": "Predecessor", "Description": {"TranslatedText": [{"lang": "en", "_content": "DM.DTHFL"}]}}]}, {"OID": "IT.ADSL.BMIBL", "Name": "BMIBL", "SASFieldName": "BMIBL", "DataType": "float", "Length": 4, "DisplayFormat": "5.1", "SignificantDigits": 1, "Description": {"TranslatedText": [{"lang": "en", "_content": "Baseline BMI (kg/m^2)"}]}, "Origin": [{"Type": "Derived", "Source": "Sponsor"}]}, {"OID": "IT.ADSL.BMIBLGR1", "Name": "BMIBLGR1", "SASFieldName": "BMIBLGR1", "DataType": "text", "Length": 6, "Description": {"TranslatedText": [{"lang": "en", "_content": "Pooled Baseline BMI Group 1"}]}, "CodeListRef": {"CodeListOID": "CL.BMICAT"}, "Origin": [{"Type": "Derived", "Source": "Sponsor"}]}, {"OID": "IT.ADSL.HEIGHTBL", "Name": "HEIGHTBL", "SASFieldName": "HEIGHTBL", "DataType": "float", "Length": 5, "DisplayFormat": "6.1", "SignificantDigits": 1, "Description": {"TranslatedText": [{"lang": "en", "_content": "Baseline Height (cm)"}]}, "Origin": [{"Type": "Derived", "Source": "Sponsor"}]}, {"OID": "IT.ADSL.WEIGHTBL", "Name": "WEIGHTBL", "SASFieldName": "WEIGHTBL", "DataType": "float", "Length": 5, "DisplayFormat": "6.1", "SignificantDigits": 1, "Description": {"TranslatedText": [{"lang": "en", "_content": "Baseline Weight (kg)"}]}, "Origin": [{"Type": "Derived", "Source": "Sponsor"}]}, {"OID": "IT.ADSL.EDUCLVL", "Name": "EDUCLVL", "SASFieldName": "EDUCLVL", "DataType": "integer", "Length": 2, "Description": {"TranslatedText": [{"lang": "en", "_content": "Years of Education"}]}, "Origin": [{"Type": "Derived", "Source": "Sponsor"}]}, {"OID": "IT.ADSL.DISONDT", "Name": "DISONDT", "SASFieldName": "DISONDT", "DataType": "integer", "Length": 5, "DisplayFormat": "date9.", "Description": {"TranslatedText": [{"lang": "en", "_content": "Date of Onset of Disease"}]}, "Origin": [{"Type": "Derived", "Source": "Sponsor"}]}, {"OID": "IT.ADSL.DURDIS", "Name": "DURDIS", "SASFieldName": "DURDIS", "DataType": "float", "Length": 5, "DisplayFormat": "6.1", "SignificantDigits": 1, "Description": {"TranslatedText": [{"lang": "en", "_content": "Duration of Disease (Months)"}]}, "Origin": [{"Type": "Derived", "Source": "Sponsor"}]}, {"OID": "IT.ADSL.DURDSGR1", "Name": "DURDSGR1", "SASFieldName": "DURDSGR1", "DataType": "text", "Length": 4, "Description": {"TranslatedText": [{"lang": "en", "_content": "Pooled Disease Duration Group 1"}]}, "CodeListRef": {"CodeListOID": "CL.DURDISC"}, "Origin": [{"Type": "Derived", "Source": "Sponsor"}]}, {"OID": "IT.ADSL.VISIT1DT", "Name": "VISIT1DT", "SASFieldName": "VISIT1DT", "DataType": "integer", "Length": 5, "DisplayFormat": "date9.", "Description": {"TranslatedText": [{"lang": "en", "_content": "Date of Visit 1"}]}, "Origin": [{"Type": "Derived", "Source": "Sponsor"}]}, {"OID": "IT.ADSL.RFSTDTC", "Name": "RFSTDTC", "SASFieldName": "RFSTDTC", "DataType": "date", "Description": {"TranslatedText": [{"lang": "en", "_content": "Subject Reference Start Date/Time"}]}, "Origin": [{"Type": "Predecessor", "Description": {"TranslatedText": [{"lang": "en", "_content": "DM.RFSTDTC"}]}}]}, {"OID": "IT.ADSL.RFENDTC", "Name": "RFENDTC", "SASFieldName": "RFENDTC", "DataType": "date", "Description": {"TranslatedText": [{"lang": "en", "_content": "Subject Reference End Date/Time"}]}, "Origin": [{"Type": "Predecessor", "Description": {"TranslatedText": [{"lang": "en", "_content": "DM.RFENDTC"}]}}]}, {"OID": "IT.ADSL.VISNUMEN", "Name": "VISNUMEN", "SASFieldName": "VISNUMEN", "DataType": "integer", "Length": 2, "Description": {"TranslatedText": [{"lang": "en", "_content": "End of Trt Visit (Vis 12 or Early Term.)"}]}, "Origin": [{"Type": "Derived", "Source": "Sponsor"}]}, {"OID": "IT.ADSL.RFENDT", "Name": "RFENDT", "SASFieldName": "RFENDT", "DataType": "integer", "Length": 5, "Description": {"TranslatedText": [{"lang": "en", "_content": "Date of Discontinuation/Completion"}]}, "Origin": [{"Type": "Derived", "Source": "Sponsor"}]}, {"OID": "IT.ADSL.EOSSTT", "Name": "EOSSTT", "SASFieldName": "EOSSTT", "DataType": "text", "Length": 12, "Description": {"TranslatedText": [{"lang": "en", "_content": "End of Study Status"}]}, "CodeListRef": {"CodeListOID": "CL.EOSSTT"}, "Origin": [{"Type": "Derived", "Source": "Sponsor"}]}, {"OID": "IT.ADSL.DCSREAS", "Name": "DCSREAS", "SASFieldName": "DCSREAS", "DataType": "text", "Length": 18, "Description": {"TranslatedText": [{"lang": "en", "_content": "Reason for Discontinuation from Study"}]}, "CodeListRef": {"CodeListOID": "CL.DISCREAS"}, "Origin": [{"Type": "Derived", "Source": "Sponsor"}]}, {"OID": "IT.ADSL.EOSDISP", "Name": "EOSDISP", "SASFieldName": "EOSDISP", "DataType": "text", "Length": 27, "Description": {"TranslatedText": [{"lang": "en", "_content": "Standardized Disposition Term"}]}, "CodeListRef": {"CodeListOID": "CL.DISCCD"}, "Origin": [{"Type": "Predecessor", "Description": {"TranslatedText": [{"lang": "en", "_content": "DS.DSDECOD where DS.DSCAT='DISPOSITION EVENT'"}]}}]}, {"OID": "IT.ADSL.MMS1TSBL", "Name": "MMS1TSBL", "SASFieldName": "MMS1TSBL", "DataType": "integer", "Length": 2, "Description": {"TranslatedText": [{"lang": "en", "_content": "MMS1-Total Score at Baseline"}]}, "Origin": [{"Type": "Derived", "Source": "Sponsor"}]}, {"OID": "IT.ADQSADAS.AVAL.ACITM01-ACITM14", "Name": "AVAL", "DataType": "integer", "Length": 2, "Description": {"TranslatedText": [{"lang": "en", "_content": "Analysis Value"}]}, "Origin": [{"Type": "Predecessor", "Description": {"TranslatedText": [{"lang": "en", "_content": "QS.QSSTRESN where QS.QSTESTCD=ADQSADAS.PARAMCD"}]}}]}, {"OID": "IT.ADQSADAS.AVAL.ACTOT", "Name": "AVAL", "DataType": "integer", "Length": 3, "Description": {"TranslatedText": [{"lang": "en", "_content": "Analysis Value"}]}, "Origin": [{"Type": "Derived", "Source": "Sponsor"}]}, {"OID": "IT.ADQSADAS.DTYPE.ACITM01-ACITM14", "Name": "DTYPE", "DataType": "text", "Length": 7, "CommentOID": "COM.ADQSADAS.DTYPE.ACITM01-ACITM14", "Description": {"TranslatedText": [{"lang": "en", "_content": "Derivation Type"}]}, "CodeListRef": {"CodeListOID": "CL.DTYPE"}, "Origin": [{"Type": "Assigned", "Source": "Sponsor"}]}, {"OID": "IT.ADQSADAS.DTYPE.ACTOT", "Name": "DTYPE", "DataType": "text", "Length": 7, "CommentOID": "COM.ADQSADAS.DTYPE.ACTOT", "Description": {"TranslatedText": [{"lang": "en", "_content": "Derivation Type"}]}, "CodeListRef": {"CodeListOID": "CL.DTYPE"}, "Origin": [{"Type": "Assigned", "Source": "Sponsor"}]}, {"OID": "IT.ADQSADAS.QSSEQ.ACITM01-ACITM14", "Name": "QSSEQ", "DataType": "integer", "Length": 4, "Description": {"TranslatedText": [{"lang": "en", "_content": "Sequence Number"}]}, "Origin": [{"Type": "Predecessor", "Description": {"TranslatedText": [{"lang": "en", "_content": "QS.QSSEQ"}]}}]}, {"OID": "IT.ADQSADAS.QSSEQ.ACTOT", "Name": "QSSEQ", "DataType": "integer", "Length": 3, "CommentOID": "COM.ADQSADAS.QSSEQ.ACTOT", "Description": {"TranslatedText": [{"lang": "en", "_content": "Sequence Number"}]}, "Origin": [{"Type": "Assigned", "Source": "Sponsor"}]}, {"OID": "IT.ADAE.STUDYID", "Name": "STUDYID", "SASFieldName": "STUDYID", "DataType": "text", "Length": 12, "Description": {"TranslatedText": [{"lang": "en", "_content": "Study Identifier"}]}, "Origin": [{"Type": "Predecessor", "Description": {"TranslatedText": [{"lang": "en", "_content": "ADSL.STUDYID"}]}}]}, {"OID": "IT.ADAE.SITEID", "Name": "SITEID", "SASFieldName": "SITEID", "DataType": "text", "Length": 3, "Description": {"TranslatedText": [{"lang": "en", "_content": "Study Site Identifier"}]}, "Origin": [{"Type": "Predecessor", "Description": {"TranslatedText": [{"lang": "en", "_content": "ADSL.SITEID"}]}}]}, {"OID": "IT.ADAE.USUBJID", "Name": "USUBJID", "SASFieldName": "USUBJID", "DataType": "text", "Length": 11, "Description": {"TranslatedText": [{"lang": "en", "_content": "Unique Subject Identifier"}]}, "Origin": [{"Type": "Predecessor", "Description": {"TranslatedText": [{"lang": "en", "_content": "ADSL.USUBJID"}]}}]}, {"OID": "IT.ADAE.TRTA", "Name": "TRTA", "SASFieldName": "TRTA", "DataType": "text", "Length": 20, "Description": {"TranslatedText": [{"lang": "en", "_content": "Actual Treatment"}]}, "CodeListRef": {"CodeListOID": "CL.ARM"}, "Origin": [{"Type": "Predecessor", "Description": {"TranslatedText": [{"lang": "en", "_content": "ADSL.TRT01A"}]}}]}, {"OID": "IT.ADAE.TRTAN", "Name": "TRTAN", "SASFieldName": "TRTAN", "DataType": "integer", "Length": 2, "Description": {"TranslatedText": [{"lang": "en", "_content": "Actual Treatment (N)"}]}, "CodeListRef": {"CodeListOID": "CL.ARMN"}, "Origin": [{"Type": "Predecessor", "Description": {"TranslatedText": [{"lang": "en", "_content": "ADSL.TRT01AN"}]}}]}, {"OID": "IT.ADAE.AGE", "Name": "AGE", "SASFieldName": "AGE", "DataType": "integer", "Length": 2, "Description": {"TranslatedText": [{"lang": "en", "_content": "Age"}]}, "Origin": [{"Type": "Predecessor", "Description": {"TranslatedText": [{"lang": "en", "_content": "ADSL.AGE"}]}}]}, {"OID": "IT.ADAE.AGEGR1", "Name": "AGEGR1", "SASFieldName": "AGEGR1", "DataType": "text", "Length": 5, "Description": {"TranslatedText": [{"lang": "en", "_content": "Pooled Age Group 1"}]}, "CodeListRef": {"CodeListOID": "CL.AGEGR1"}, "Origin": [{"Type": "Predecessor", "Description": {"TranslatedText": [{"lang": "en", "_content": "ADSL.AGEGR1"}]}}]}, {"OID": "IT.ADAE.AGEGR1N", "Name": "AGEGR1N", "SASFieldName": "AGEGR1N", "DataType": "integer", "Length": 1, "Description": {"TranslatedText": [{"lang": "en", "_content": "Pooled Age Group 1 (N)"}]}, "CodeListRef": {"CodeListOID": "CL.AGEGR1N"}, "Origin": [{"Type": "Predecessor", "Description": {"TranslatedText": [{"lang": "en", "_content": "ADSL.AGEGR1N"}]}}]}, {"OID": "IT.ADAE.RACE", "Name": "RACE", "SASFieldName": "RACE", "DataType": "text", "Length": 32, "Description": {"TranslatedText": [{"lang": "en", "_content": "Race"}]}, "CodeListRef": {"CodeListOID": "CL.RACE"}, "Origin": [{"Type": "Predecessor", "Description": {"TranslatedText": [{"lang": "en", "_content": "ADSL.RACE"}]}}]}, {"OID": "IT.ADAE.RACEN", "Name": "RACEN", "SASFieldName": "RACEN", "DataType": "integer", "Length": 1, "Description": {"TranslatedText": [{"lang": "en", "_content": "Race (N)"}]}, "CodeListRef": {"CodeListOID": "CL.RACEN"}, "Origin": [{"Type": "Predecessor", "Description": {"TranslatedText": [{"lang": "en", "_content": "ADSL.RACEN"}]}}]}, {"OID": "IT.ADAE.SEX", "Name": "SEX", "SASFieldName": "SEX", "DataType": "text", "Length": 1, "Description": {"TranslatedText": [{"lang": "en", "_content": "Sex"}]}, "CodeListRef": {"CodeListOID": "CL.SEX"}, "Origin": [{"Type": "Predecessor", "Description": {"TranslatedText": [{"lang": "en", "_content": "ADSL.SEX"}]}}]}, {"OID": "IT.ADAE.SAFFL", "Name": "SAFFL", "SASFieldName": "SAFFL", "DataType": "text", "Length": 1, "Description": {"TranslatedText": [{"lang": "en", "_content": "Safety Population Flag"}]}, "CodeListRef": {"CodeListOID": "CL.YN"}, "Origin": [{"Type": "Predecessor", "Description": {"TranslatedText": [{"lang": "en", "_content": "ADSL.SAFFL"}]}}]}, {"OID": "IT.ADAE.TRTSDT", "Name": "TRTSDT", "SASFieldName": "TRTSDT", "DataType": "integer", "Length": 5, "DisplayFormat": "date9.", "Description": {"TranslatedText": [{"lang": "en", "_content": "Date of First Exposure to Treatment"}]}, "Origin": [{"Type": "Predecessor", "Description": {"TranslatedText": [{"lang": "en", "_content": "ADSL.TRTSDT"}]}}]}, {"OID": "IT.ADAE.TRTEDT", "Name": "TRTEDT", "SASFieldName": "TRTEDT", "DataType": "integer", "Length": 5, "DisplayFormat": "date9.", "Description": {"TranslatedText": [{"lang": "en", "_content": "Date of Last Exposure to Treatment"}]}, "Origin": [{"Type": "Predecessor", "Description": {"TranslatedText": [{"lang": "en", "_content": "ADSL.TRTEDT"}]}}]}, {"OID": "IT.ADAE.ASTDT", "Name": "ASTDT", "SASFieldName": "ASTDT", "DataType": "integer", "Length": 5, "DisplayFormat": "date9.", "Description": {"TranslatedText": [{"lang": "en", "_content": "Analysis Start Date"}]}, "Origin": [{"Type": "Derived", "Source": "Sponsor"}]}, {"OID": "IT.ADAE.ASTDTF", "Name": "ASTDTF", "SASFieldName": "ASTDTF", "DataType": "text", "Length": 1, "Description": {"TranslatedText": [{"lang": "en", "_content": "Analysis Start Date Imputation Flag"}]}, "CodeListRef": {"CodeListOID": "CL.DATEFL"}, "Origin": [{"Type": "Derived", "Source": "Sponsor"}]}, {"OID": "IT.ADAE.ASTDY", "Name": "ASTDY", "SASFieldName": "ASTDY", "DataType": "integer", "Length": 5, "Description": {"TranslatedText": [{"lang": "en", "_content": "Analysis Start Relative Day"}]}, "Origin": [{"Type": "Derived", "Source": "Sponsor"}]}, {"OID": "IT.ADAE.AENDT", "Name": "AENDT", "SASFieldName": "AENDT", "DataType": "integer", "Length": 5, "DisplayFormat": "date9.", "Description": {"TranslatedText": [{"lang": "en", "_content": "Analysis End Date"}]}, "Origin": [{"Type": "Derived", "Source": "Sponsor"}]}, {"OID": "IT.ADAE.AENDY", "Name": "AENDY", "SASFieldName": "AENDY", "DataType": "integer", "Length": 4, "Description": {"TranslatedText": [{"lang": "en", "_content": "Analysis End Relative Day"}]}, "Origin": [{"Type": "Derived", "Source": "Sponsor"}]}, {"OID": "IT.ADAE.ADURN", "Name": "ADURN", "SASFieldName": "ADURN", "DataType": "integer", "Length": 3, "Description": {"TranslatedText": [{"lang": "en", "_content": "Analysis Duration (N)"}]}, "Origin": [{"Type": "Derived", "Source": "Sponsor"}]}, {"OID": "IT.ADAE.ADURU", "Name": "ADURU", "SASFieldName": "ADURU", "DataType": "text", "Length": 3, "Description": {"TranslatedText": [{"lang": "en", "_content": "Analysis Duration Units"}]}, "Origin": [{"Type": "Derived", "Source": "Sponsor"}]}, {"OID": "IT.ADAE.AETERM", "Name": "AETERM", "SASFieldName": "AETERM", "DataType": "text", "Length": 46, "Description": {"TranslatedText": [{"lang": "en", "_content": "Reported Term for the Adverse Event"}]}, "Origin": [{"Type": "Predecessor", "Description": {"TranslatedText": [{"lang": "en", "_content": "AE.AETERM"}]}}]}, {"OID": "IT.ADAE.AELLT", "Name": "AELLT", "SASFieldName": "AELLT", "DataType": "text", "Length": 46, "Description": {"TranslatedText": [{"lang": "en", "_content": "Lowest Level Term"}]}, "CodeListRef": {"CodeListOID": "CL.AEDICT"}, "Origin": [{"Type": "Predecessor", "Description": {"TranslatedText": [{"lang": "en", "_content": "AE.AELLT"}]}}]}, {"OID": "IT.ADAE.AELLTCD", "Name": "AELLTCD", "SASFieldName": "AELLTCD", "DataType": "integer", "Length": 8, "Description": {"TranslatedText": [{"lang": "en", "_content": "Lowest Level Term Code"}]}, "CodeListRef": {"CodeListOID": "CL.AEDICTN"}, "Origin": [{"Type": "Predecessor", "Description": {"TranslatedText": [{"lang": "en", "_content": "AE.AELLTCD"}]}}]}, {"OID": "IT.ADAE.AEDECOD", "Name": "AEDECOD", "SASFieldName": "AEDECOD", "DataType": "text", "Length": 46, "Description": {"TranslatedText": [{"lang": "en", "_content": "Dictionary-Derived Term"}]}, "CodeListRef": {"CodeListOID": "CL.AEDICT"}, "Origin": [{"Type": "Predecessor", "Description": {"TranslatedText": [{"lang": "en", "_content": "AE.AEDECOD"}]}}]}, {"OID": "IT.ADAE.AEPTCD", "Name": "AEPTCD", "SASFieldName": "AEPTCD", "DataType": "integer", "Length": 8, "Description": {"TranslatedText": [{"lang": "en", "_content": "Preferred Term Code"}]}, "CodeListRef": {"CodeListOID": "CL.AEDICTN"}, "Origin": [{"Type": "Predecessor", "Description": {"TranslatedText": [{"lang": "en", "_content": "AE.AEPTCD"}]}}]}, {"OID": "IT.ADAE.AEHLT", "Name": "AEHLT", "SASFieldName": "AEHLT", "DataType": "text", "Length": 8, "Description": {"TranslatedText": [{"lang": "en", "_content": "High Level Term"}]}, "CodeListRef": {"CodeListOID": "CL.AEDICT"}, "Origin": [{"Type": "Predecessor", "Description": {"TranslatedText": [{"lang": "en", "_content": "AE.AEHLT"}]}}]}, {"OID": "IT.ADAE.AEHLTCD", "Name": "AEHLTCD", "SASFieldName": "AEHLTCD", "DataType": "integer", "Length": 8, "Description": {"TranslatedText": [{"lang": "en", "_content": "High Level Term Code"}]}, "CodeListRef": {"CodeListOID": "CL.AEDICTN"}, "Origin": [{"Type": "Predecessor", "Description": {"TranslatedText": [{"lang": "en", "_content": "AE.AEHLTCD"}]}}]}, {"OID": "IT.ADAE.AEHLGT", "Name": "AEHLGT", "SASFieldName": "AEHLGT", "DataType": "text", "Length": 9, "Description": {"TranslatedText": [{"lang": "en", "_content": "High Level Group Term"}]}, "CodeListRef": {"CodeListOID": "CL.AEDICT"}, "Origin": [{"Type": "Predecessor", "Description": {"TranslatedText": [{"lang": "en", "_content": "AE.AEHLGT"}]}}]}, {"OID": "IT.ADAE.AEHLGTCD", "Name": "AEHLGTCD", "SASFieldName": "AEHLGTCD", "DataType": "integer", "Length": 8, "Description": {"TranslatedText": [{"lang": "en", "_content": "High Level Group Term Code"}]}, "CodeListRef": {"CodeListOID": "CL.AEDICTN"}, "Origin": [{"Type": "Predecessor", "Description": {"TranslatedText": [{"lang": "en", "_content": "AE.AEHLGTCD"}]}}]}, {"OID": "IT.ADAE.AEBODSYS", "Name": "AEBODSYS", "SASFieldName": "AEBODSYS", "DataType": "text", "Length": 67, "Description": {"TranslatedText": [{"lang": "en", "_content": "Body System or Organ Class"}]}, "CodeListRef": {"CodeListOID": "CL.AEDICT"}, "Origin": [{"Type": "Predecessor", "Description": {"TranslatedText": [{"lang": "en", "_content": "AE.AEBODSYS"}]}}]}, {"OID": "IT.ADAE.AESOC", "Name": "AESOC", "SASFieldName": "AESOC", "DataType": "text", "Length": 67, "Description": {"TranslatedText": [{"lang": "en", "_content": "Primary System Organ Class"}]}, "CodeListRef": {"CodeListOID": "CL.AEDICT"}, "Origin": [{"Type": "Predecessor", "Description": {"TranslatedText": [{"lang": "en", "_content": "AE.AESOC"}]}}]}, {"OID": "IT.ADAE.AESOCCD", "Name": "AESOCCD", "SASFieldName": "AESOCCD", "DataType": "integer", "Length": 8, "Description": {"TranslatedText": [{"lang": "en", "_content": "Primary System Organ Class Code"}]}, "CodeListRef": {"CodeListOID": "CL.AEDICTN"}, "Origin": [{"Type": "Predecessor", "Description": {"TranslatedText": [{"lang": "en", "_content": "AE.AESOCCD"}]}}]}, {"OID": "IT.ADAE.AESEV", "Name": "AESEV", "SASFieldName": "AESEV", "DataType": "text", "Length": 8, "Description": {"TranslatedText": [{"lang": "en", "_content": "Severity/Intensity"}]}, "CodeListRef": {"CodeListOID": "CL.AESEV"}, "Origin": [{"Type": "Predecessor", "Description": {"TranslatedText": [{"lang": "en", "_content": "AE.AESEV"}]}}]}, {"OID": "IT.ADAE.AESER", "Name": "AESER", "SASFieldName": "AESER", "DataType": "text", "Length": 1, "Description": {"TranslatedText": [{"lang": "en", "_content": "Serious Event"}]}, "CodeListRef": {"CodeListOID": "CL.YN"}, "Origin": [{"Type": "Predecessor", "Description": {"TranslatedText": [{"lang": "en", "_content": "AE.AESER"}]}}]}, {"OID": "IT.ADAE.AESCAN", "Name": "AESCAN", "SASFieldName": "AESCAN", "DataType": "text", "Length": 1, "Description": {"TranslatedText": [{"lang": "en", "_content": "Involves Cancer"}]}, "CodeListRef": {"CodeListOID": "CL.YN"}, "Origin": [{"Type": "Predecessor", "Description": {"TranslatedText": [{"lang": "en", "_content": "AE.AESCAN"}]}}]}, {"OID": "IT.ADAE.AESCONG", "Name": "AESCONG", "SASFieldName": "AESCONG", "DataType": "text", "Length": 1, "Description": {"TranslatedText": [{"lang": "en", "_content": "Congenital Anomaly or Birth Defect"}]}, "CodeListRef": {"CodeListOID": "CL.YN"}, "Origin": [{"Type": "Predecessor", "Description": {"TranslatedText": [{"lang": "en", "_content": "AE.AESCONG"}]}}]}, {"OID": "IT.ADAE.AESDISAB", "Name": "AESDISAB", "SASFieldName": "AESDISAB", "DataType": "text", "Length": 1, "Description": {"TranslatedText": [{"lang": "en", "_content": "Persist or Signif Disability/Incapacity"}]}, "CodeListRef": {"CodeListOID": "CL.YN"}, "Origin": [{"Type": "Predecessor", "Description": {"TranslatedText": [{"lang": "en", "_content": "AE.AESDISAB"}]}}]}, {"OID": "IT.ADAE.AESDTH", "Name": "AESDTH", "SASFieldName": "AESDTH", "DataType": "text", "Length": 1, "Description": {"TranslatedText": [{"lang": "en", "_content": "Results in Death"}]}, "CodeListRef": {"CodeListOID": "CL.YN"}, "Origin": [{"Type": "Predecessor", "Description": {"TranslatedText": [{"lang": "en", "_content": "AE.AESDTH"}]}}]}, {"OID": "IT.ADAE.AESHOSP", "Name": "AESHOSP", "SASFieldName": "AESHOSP", "DataType": "text", "Length": 1, "Description": {"TranslatedText": [{"lang": "en", "_content": "Requires or Prolongs Hospitalization"}]}, "CodeListRef": {"CodeListOID": "CL.YN"}, "Origin": [{"Type": "Predecessor", "Description": {"TranslatedText": [{"lang": "en", "_content": "AE.AESHOSP"}]}}]}, {"OID": "IT.ADAE.AESLIFE", "Name": "AESLIFE", "SASFieldName": "AESLIFE", "DataType": "text", "Length": 1, "Description": {"TranslatedText": [{"lang": "en", "_content": "Is Life Threatening"}]}, "CodeListRef": {"CodeListOID": "CL.YN"}, "Origin": [{"Type": "Predecessor", "Description": {"TranslatedText": [{"lang": "en", "_content": "AE.AESLIFE"}]}}]}, {"OID": "IT.ADAE.AESOD", "Name": "AESOD", "SASFieldName": "AESOD", "DataType": "text", "Length": 1, "Description": {"TranslatedText": [{"lang": "en", "_content": "Occurred with Overdose"}]}, "CodeListRef": {"CodeListOID": "CL.YN"}, "Origin": [{"Type": "Predecessor", "Description": {"TranslatedText": [{"lang": "en", "_content": "AE.AESOD"}]}}]}, {"OID": "IT.ADAE.AEREL", "Name": "AEREL", "SASFieldName": "AEREL", "DataType": "text", "Length": 8, "Description": {"TranslatedText": [{"lang": "en", "_content": "Causality"}]}, "CodeListRef": {"CodeListOID": "CL.AECAUS"}, "Origin": [{"Type": "Predecessor", "Description": {"TranslatedText": [{"lang": "en", "_content": "AE.AEREL"}]}}]}, {"OID": "IT.ADAE.AEACN", "Name": "AEACN", "SASFieldName": "AEACN", "DataType": "text", "Length": 1, "Description": {"TranslatedText": [{"lang": "en", "_content": "Action Taken with Study Treatment"}]}, "Origin": [{"Type": "Predecessor", "Description": {"TranslatedText": [{"lang": "en", "_content": "AE.AEACN"}]}}]}, {"OID": "IT.ADAE.AEOUT", "Name": "AEOUT", "SASFieldName": "AEOUT", "DataType": "text", "Length": 26, "Description": {"TranslatedText": [{"lang": "en", "_content": "Outcome of Adverse Event"}]}, "CodeListRef": {"CodeListOID": "CL.OUT"}, "Origin": [{"Type": "Predecessor", "Description": {"TranslatedText": [{"lang": "en", "_content": "AE.AEOUT"}]}}]}, {"OID": "IT.ADAE.AESEQ", "Name": "AESEQ", "SASFieldName": "AESEQ", "DataType": "integer", "Length": 8, "Description": {"TranslatedText": [{"lang": "en", "_content": "Sequence Number"}]}, "Origin": [{"Type": "Predecessor", "Description": {"TranslatedText": [{"lang": "en", "_content": "AE.AESEQ"}]}}]}, {"OID": "IT.ADAE.TRTEMFL", "Name": "TRTEMFL", "SASFieldName": "TRTEMFL", "DataType": "text", "Length": 1, "Description": {"TranslatedText": [{"lang": "en", "_content": "Treatment Emergent Analysis Flag"}]}, "CodeListRef": {"CodeListOID": "CL.YN"}, "Origin": [{"Type": "Derived", "Source": "Sponsor"}]}, {"OID": "IT.ADAE.AOCCFL", "Name": "AOCCFL", "SASFieldName": "AOCCFL", "DataType": "text", "Length": 1, "Description": {"TranslatedText": [{"lang": "en", "_content": "1st Occurrence within Subject Flag"}]}, "CodeListRef": {"CodeListOID": "CL.Y_BLANK"}, "Origin": [{"Type": "Derived", "Source": "Sponsor"}]}, {"OID": "IT.ADAE.AOCCSFL", "Name": "AOCCSFL", "SASFieldName": "AOCCSFL", "DataType": "text", "Length": 1, "Description": {"TranslatedText": [{"lang": "en", "_content": "1st Occurrence of SOC Flag"}]}, "CodeListRef": {"CodeListOID": "CL.Y_BLANK"}, "Origin": [{"Type": "Derived", "Source": "Sponsor"}]}, {"OID": "IT.ADAE.AOCCPFL", "Name": "AOCCPFL", "SASFieldName": "AOCCPFL", "DataType": "text", "Length": 1, "Description": {"TranslatedText": [{"lang": "en", "_content": "1st Occurrence of Preferred Term Flag"}]}, "CodeListRef": {"CodeListOID": "CL.Y_BLANK"}, "Origin": [{"Type": "Derived", "Source": "Sponsor"}]}, {"OID": "IT.ADAE.AOCC02FL", "Name": "AOCC02FL", "SASFieldName": "AOCC02FL", "DataType": "text", "Length": 1, "Description": {"TranslatedText": [{"lang": "en", "_content": "1st Occurrence of Serious 02 Flag"}]}, "CodeListRef": {"CodeListOID": "CL.Y_BLANK"}, "Origin": [{"Type": "Derived", "Source": "Sponsor"}]}, {"OID": "IT.ADAE.AOCC03FL", "Name": "AOCC03FL", "SASFieldName": "AOCC03FL", "DataType": "text", "Length": 1, "Description": {"TranslatedText": [{"lang": "en", "_content": "1st Occurrence of Serious SOC 03 Flag"}]}, "CodeListRef": {"CodeListOID": "CL.Y_BLANK"}, "Origin": [{"Type": "Derived", "Source": "Sponsor"}]}, {"OID": "IT.ADAE.AOCC04FL", "Name": "AOCC04FL", "SASFieldName": "AOCC04FL", "DataType": "text", "Length": 1, "Description": {"TranslatedText": [{"lang": "en", "_content": "1st Occurrence of Serious PT 04 Flag"}]}, "CodeListRef": {"CodeListOID": "CL.Y_BLANK"}, "Origin": [{"Type": "Derived", "Source": "Sponsor"}]}, {"OID": "IT.ADAE.CQ01NAM", "Name": "CQ01NAM", "SASFieldName": "CQ01NAM", "DataType": "text", "Length": 19, "Description": {"TranslatedText": [{"lang": "en", "_content": "Customized Query 01 Name"}]}, "Origin": [{"Type": "Derived", "Source": "Sponsor"}]}, {"OID": "IT.ADAE.AOCC01FL", "Name": "AOCC01FL", "SASFieldName": "AOCC01FL", "DataType": "text", "Length": 1, "Description": {"TranslatedText": [{"lang": "en", "_content": "1st Occurrence of CQ01 01 Flag"}]}, "CodeListRef": {"CodeListOID": "CL.Y_BLANK"}, "Origin": [{"Type": "Derived", "Source": "Sponsor"}]}], "CodeList": [{"OID": "CL.AGEGR1", "Name": "Age Group", "DataType": "text", "IsNonStandard": "Yes", "EnumeratedItem": [{"CodedValue": "<65", "Rank": 1.0}, {"CodedValue": "65-80", "Rank": 2.0}, {"CodedValue": ">80", "Rank": 3.0}]}, {"OID": "CL.AGEGR1N", "Name": "Age Group (N)", "DataType": "integer", "IsNonStandard": "Yes", "CodeListItem": [{"CodedValue": "1", "OrderNumber": 1, "Decode": {"TranslatedText": [{"lang": "en", "_content": "<65"}]}}, {"CodedValue": "2", "OrderNumber": 2, "Decode": {"TranslatedText": [{"lang": "en", "_content": "65-80"}]}}, {"CodedValue": "3", "OrderNumber": 3, "Decode": {"TranslatedText": [{"lang": "en", "_content": ">80"}]}}]}, {"OID": "CL.AGEU", "Name": "Age Unit", "DataType": "text", "StandardOID": "STD.CT.02", "EnumeratedItem": [{"CodedValue": "YEARS", "Alias": [{"Context": "nci:ExtCodeID", "Name": "C29848"}]}], "Alias": [{"Context": "nci:ExtCodeID", "Name": "C66781"}]}, {"OID": "CL.ARM", "Name": "Actual Treatment", "DataType": "text", "IsNonStandard": "Yes", "EnumeratedItem": [{"CodedValue": "Placebo", "OrderNumber": 1}, {"CodedValue": "Xanomeline Low Dose", "OrderNumber": 2}, {"CodedValue": "Xanomeline High Dose", "OrderNumber": 3}]}, {"OID": "CL.ARMN", "Name": "Actual Treatment (N)", "DataType": "integer", "IsNonStandard": "Yes", "CodeListItem": [{"CodedValue": "0", "OrderNumber": 1, "Decode": {"TranslatedText": [{"lang": "en", "_content": "Placebo"}]}}, {"CodedValue": "54", "OrderNumber": 2, "Decode": {"TranslatedText": [{"lang": "en", "_content": "Xanomeline Low Dose"}]}}, {"CodedValue": "81", "OrderNumber": 3, "Decode": {"TranslatedText": [{"lang": "en", "_content": "Xanomeline High Dose"}]}}]}, {"OID": "CL.AVISIT", "Name": "Analysis Visit", "DataType": "text", "IsNonStandard": "Yes", "EnumeratedItem": [{"CodedValue": "Baseline", "OrderNumber": 1}, {"CodedValue": "Week 8", "OrderNumber": 2}, {"CodedValue": "Week 16", "OrderNumber": 3}, {"CodedValue": "Week 24", "OrderNumber": 4}]}, {"OID": "CL.AVISITN", "Name": "Analysis Visit (N)", "DataType": "integer", "IsNonStandard": "Yes", "CodeListItem": [{"CodedValue": "0", "OrderNumber": 1, "Decode": {"TranslatedText": [{"lang": "en", "_content": "Baseline"}]}}, {"CodedValue": "8", "OrderNumber": 2, "Decode": {"TranslatedText": [{"lang": "en", "_content": "Week 8"}]}}, {"CodedValue": "16", "OrderNumber": 3, "Decode": {"TranslatedText": [{"lang": "en", "_content": "Week 16"}]}}, {"CodedValue": "24", "OrderNumber": 4, "Decode": {"TranslatedText": [{"lang": "en", "_content": "Week 24"}]}}]}, {"OID": "CL.AWU", "Name": "Unit - AWU", "DataType": "text", "StandardOID": "STD.CT.02", "EnumeratedItem": [{"CodedValue": "DAYS", "Alias": [{"Context": "nci:ExtCodeID", "Name": "C25301"}]}], "Alias": [{"Context": "nci:ExtCodeID", "Name": "C71620"}]}, {"OID": "CL.BMICAT", "Name": "Body Mass Index Category", "DataType": "text", "IsNonStandard": "Yes", "CodeListItem": [{"CodedValue": "<25", "Rank": 1.0, "Decode": {"TranslatedText": [{"lang": "en", "_content": "Normal"}]}}, {"CodedValue": "25-<30", "Rank": 2.0, "Decode": {"TranslatedText": [{"lang": "en", "_content": "Overweight"}]}}, {"CodedValue": ">30", "Rank": 3.0, "Decode": {"TranslatedText": [{"lang": "en", "_content": "Obese"}]}}]}, {"OID": "CL.DATEFL", "Name": "Date Imputation Flag", "DataType": "text", "StandardOID": "STD.CT.01", "CodeListItem": [{"CodedValue": "D", "OrderNumber": 1, "Decode": {"TranslatedText": [{"lang": "en", "_content": "Day Imputed: Day is imputed"}]}, "Alias": [{"Context": "nci:ExtCodeID", "Name": "C81212"}]}, {"CodedValue": "M", "OrderNumber": 2, "Decode": {"TranslatedText": [{"lang": "en", "_content": "Month Imputed: Month and day are imputed"}]}, "Alias": [{"Context": "nci:ExtCodeID", "Name": "C81211"}]}, {"CodedValue": "Y", "OrderNumber": 3, "Decode": {"TranslatedText": [{"lang": "en", "_content": "Year Imputed: Entire date (year, month and day) is imputed"}]}, "Alias": [{"Context": "nci:ExtCodeID", "Name": "C81210"}]}], "Alias": [{"Context": "nci:ExtCodeID", "Name": "C81223"}]}, {"OID": "CL.DISCCD", "Name": "Completion/Reason for Non-Completion", "DataType": "text", "StandardOID": "STD.CT.02", "EnumeratedItem": [{"CodedValue": "COMPLETED", "OrderNumber": 1, "Alias": [{"Context": "nci:ExtCodeID", "Name": "C25250"}]}, {"CodedValue": "ADVERSE EVENT", "OrderNumber": 2, "Alias": [{"Context": "nci:ExtCodeID", "Name": "C41331"}]}, {"CodedValue": "DEATH", "OrderNumber": 3, "Alias": [{"Context": "nci:ExtCodeID", "Name": "C28554"}]}, {"CodedValue": "LACK OF EFFICACY", "OrderNumber": 4, "Alias": [{"Context": "nci:ExtCodeID", "Name": "C48226"}]}, {"CodedValue": "LOST TO FOLLOW-UP", "OrderNumber": 5, "Alias": [{"Context": "nci:ExtCodeID", "Name": "C48227"}]}, {"CodedValue": "PHYSICIAN DECISION", "OrderNumber": 6, "Alias": [{"Context": "nci:ExtCodeID", "Name": "C48250"}]}, {"CodedValue": "PROTOCOL VIOLATION", "OrderNumber": 7, "Alias": [{"Context": "nci:ExtCodeID", "Name": "C142185"}]}, {"CodedValue": "STUDY TERMINATED BY SPONSOR", "OrderNumber": 8, "Alias": [{"Context": "nci:ExtCodeID", "Name": "C49632"}]}, {"CodedValue": "WITHDRAWAL BY SUBJECT", "OrderNumber": 9, "Alias": [{"Context": "nci:ExtCodeID", "Name": "C49634"}]}], "Alias": [{"Context": "nci:ExtCodeID", "Name": "C66727"}]}, {"OID": "CL.DISCREAS", "Name": "Reason for Discontinuation", "DataType": "text", "IsNonStandard": "Yes", "EnumeratedItem": [{"CodedValue": "Completed", "OrderNumber": 1}, {"CodedValue": "Adverse Event", "OrderNumber": 2}, {"CodedValue": "Death", "OrderNumber": 3}, {"CodedValue": "I/E Not Met", "OrderNumber": 4}, {"CodedValue": "Lack of Efficacy", "OrderNumber": 5}, {"CodedValue": "Lost to Follow-up", "OrderNumber": 6}, {"CodedValue": "Physician Decision", "OrderNumber": 7}, {"CodedValue": "Protocol Violation", "OrderNumber": 8}, {"CodedValue": "Sponsor Decision", "OrderNumber": 9}, {"CodedValue": "Withdrew Consent", "OrderNumber": 10}]}, {"OID": "CL.DTYPE", "Name": "Derivation Type", "DataType": "text", "StandardOID": "STD.CT.01", "CodeListItem": [{"CodedValue": "LOCF", "Decode": {"TranslatedText": [{"lang": "en", "_content": "Last Observation Carried Forward"}]}, "Alias": [{"Context": "nci:ExtCodeID", "Name": "C81198"}]}], "Alias": [{"Context": "nci:ExtCodeID", "Name": "C81224"}]}, {"OID": "CL.DURDISC", "Name": "Disease Duration Group", "DataType": "text", "IsNonStandard": "Yes", "EnumeratedItem": [{"CodedValue": "<12", "Rank": 1.0}, {"CodedValue": ">=12", "Rank": 2.0}]}, {"OID": "CL.EOSSTT", "Name": "Subject Trial Status", "DataType": "text", "StandardOID": "STD.CT.01", "EnumeratedItem": [{"CodedValue": "COMPLETED", "Alias": [{"Context": "nci:ExtCodeID", "Name": "C25250"}]}, {"CodedValue": "DISCONTINUED", "Alias": [{"Context": "nci:ExtCodeID", "Name": "C25484"}]}], "Alias": [{"Context": "nci:ExtCodeID", "Name": "C124296"}]}, {"OID": "CL.ETHNIC", "Name": "Ethnic Group", "DataType": "text", "StandardOID": "STD.CT.02", "EnumeratedItem": [{"CodedValue": "HISPANIC OR LATINO", "Alias": [{"Context": "nci:ExtCodeID", "Name": "C17459"}]}, {"CodedValue": "NOT HISPANIC OR LATINO", "Alias": [{"Context": "nci:ExtCodeID", "Name": "C41222"}]}], "Alias": [{"Context": "nci:ExtCodeID", "Name": "C66790"}]}, {"OID": "CL.PARAMCD_ADQSADAS", "Name": "ADAS-Cog Parameter Code", "DataType": "text", "IsNonStandard": "Yes", "CodeListItem": [{"CodedValue": "ACITM01", "OrderNumber": 1, "Decode": {"TranslatedText": [{"lang": "en", "_content": "Word Recall Task"}]}}, {"CodedValue": "ACITM02", "OrderNumber": 2, "Decode": {"TranslatedText": [{"lang": "en", "_content": "Naming Objects And Fingers (Refer To 5 C"}]}}, {"CodedValue": "ACITM03", "OrderNumber": 3, "Decode": {"TranslatedText": [{"lang": "en", "_content": "Delayed Word Recall"}]}}, {"CodedValue": "ACITM04", "OrderNumber": 4, "Decode": {"TranslatedText": [{"lang": "en", "_content": "Commands"}]}}, {"CodedValue": "ACITM05", "OrderNumber": 5, "Decode": {"TranslatedText": [{"lang": "en", "_content": "Constructional Praxis"}]}}, {"CodedValue": "ACITM06", "OrderNumber": 6, "Decode": {"TranslatedText": [{"lang": "en", "_content": "Ideational Praxis"}]}}, {"CodedValue": "ACITM07", "OrderNumber": 7, "Decode": {"TranslatedText": [{"lang": "en", "_content": "Orientation"}]}}, {"CodedValue": "ACITM08", "OrderNumber": 8, "Decode": {"TranslatedText": [{"lang": "en", "_content": "Word Recognition"}]}}, {"CodedValue": "ACITM09", "OrderNumber": 9, "Decode": {"TranslatedText": [{"lang": "en", "_content": "Attention/Visual Search Task"}]}}, {"CodedValue": "ACITM10", "OrderNumber": 10, "Decode": {"TranslatedText": [{"lang": "en", "_content": "Maze Solution"}]}}, {"CodedValue": "ACITM11", "OrderNumber": 11, "Decode": {"TranslatedText": [{"lang": "en", "_content": "Spoken Language Ability"}]}}, {"CodedValue": "ACITM12", "OrderNumber": 12, "Decode": {"TranslatedText": [{"lang": "en", "_content": "Comprehension Of Spoken Language"}]}}, {"CodedValue": "ACITM13", "OrderNumber": 13, "Decode": {"TranslatedText": [{"lang": "en", "_content": "Word Finding Difficulty In Spontaneous Speech"}]}}, {"CodedValue": "ACITM14", "OrderNumber": 14, "Decode": {"TranslatedText": [{"lang": "en", "_content": "Recall Of Test Instructions"}]}}, {"CodedValue": "ACTOT", "OrderNumber": 15, "Decode": {"TranslatedText": [{"lang": "en", "_content": "Adas-Cog(11) Subscore"}]}}]}, {"OID": "CL.PARAMN_ADQSADAS", "Name": "ADAS-Cog Parameter Code (N)", "DataType": "integer", "IsNonStandard": "Yes", "CodeListItem": [{"CodedValue": "1", "OrderNumber": 1, "Decode": {"TranslatedText": [{"lang": "en", "_content": "Word Recall Task"}]}}, {"CodedValue": "2", "OrderNumber": 2, "Decode": {"TranslatedText": [{"lang": "en", "_content": "Naming Objects And Fingers (Refer To 5 C"}]}}, {"CodedValue": "3", "OrderNumber": 3, "Decode": {"TranslatedText": [{"lang": "en", "_content": "Delayed Word Recall"}]}}, {"CodedValue": "4", "OrderNumber": 4, "Decode": {"TranslatedText": [{"lang": "en", "_content": "Commands"}]}}, {"CodedValue": "5", "OrderNumber": 5, "Decode": {"TranslatedText": [{"lang": "en", "_content": "Constructional Praxis"}]}}, {"CodedValue": "6", "OrderNumber": 6, "Decode": {"TranslatedText": [{"lang": "en", "_content": "Ideational Praxis"}]}}, {"CodedValue": "7", "OrderNumber": 7, "Decode": {"TranslatedText": [{"lang": "en", "_content": "Orientation"}]}}, {"CodedValue": "8", "OrderNumber": 8, "Decode": {"TranslatedText": [{"lang": "en", "_content": "Word Recognition"}]}}, {"CodedValue": "9", "OrderNumber": 9, "Decode": {"TranslatedText": [{"lang": "en", "_content": "Attention/Visual Search Task"}]}}, {"CodedValue": "10", "OrderNumber": 10, "Decode": {"TranslatedText": [{"lang": "en", "_content": "Maze Solution"}]}}, {"CodedValue": "11", "OrderNumber": 11, "Decode": {"TranslatedText": [{"lang": "en", "_content": "Spoken Language Ability"}]}}, {"CodedValue": "12", "OrderNumber": 12, "Decode": {"TranslatedText": [{"lang": "en", "_content": "Comprehension Of Spoken Language"}]}}, {"CodedValue": "13", "OrderNumber": 13, "Decode": {"TranslatedText": [{"lang": "en", "_content": "Word Finding Difficulty In Spontaneous S"}]}}, {"CodedValue": "14", "OrderNumber": 14, "Decode": {"TranslatedText": [{"lang": "en", "_content": "Recall Of Test Instructions"}]}}, {"CodedValue": "15", "OrderNumber": 15, "Decode": {"TranslatedText": [{"lang": "en", "_content": "Adas-Cog(11) Subscore"}]}}]}, {"OID": "CL.PARAM_ADQSADAS", "Name": "ADAS-Cog Parameter", "DataType": "text", "IsNonStandard": "Yes", "EnumeratedItem": [{"CodedValue": "Word Recall Task", "OrderNumber": 1}, {"CodedValue": "Naming Objects And Fingers (Refer To 5 C", "OrderNumber": 2}, {"CodedValue": "Delayed Word Recall", "OrderNumber": 3}, {"CodedValue": "Commands", "OrderNumber": 4}, {"CodedValue": "Constructional Praxis", "OrderNumber": 5}, {"CodedValue": "Ideational Praxis", "OrderNumber": 6}, {"CodedValue": "Orientation", "OrderNumber": 7}, {"CodedValue": "Word Recognition", "OrderNumber": 8}, {"CodedValue": "Attention/Visual Search Task", "OrderNumber": 9}, {"CodedValue": "Maze Solution", "OrderNumber": 10}, {"CodedValue": "Spoken Language Ability", "OrderNumber": 11}, {"CodedValue": "Comprehension Of Spoken Language", "OrderNumber": 12}, {"CodedValue": "Word Finding Difficulty In Spontaneous S", "OrderNumber": 13}, {"CodedValue": "Recall Of Test Instructions", "OrderNumber": 14}, {"CodedValue": "Adas-Cog(11) Subscore", "OrderNumber": 15}]}, {"OID": "CL.AWRANGE_ADQSADAS", "Name": "Analysis Window Range", "DataType": "text", "IsNonStandard": "Yes", "EnumeratedItem": [{"CodedValue": "<=1", "OrderNumber": 1}, {"CodedValue": "2-84", "OrderNumber": 2}, {"CodedValue": "85-140", "OrderNumber": 3}, {"CodedValue": ">140", "OrderNumber": 4}]}, {"OID": "CL.RACE", "Name": "Race", "DataType": "text", "StandardOID": "STD.CT.02", "EnumeratedItem": [{"CodedValue": "WHITE", "OrderNumber": 1, "Alias": [{"Context": "nci:ExtCodeID", "Name": "C41261"}]}, {"CodedValue": "BLACK OR AFRICAN AMERICAN", "OrderNumber": 2, "Alias": [{"Context": "nci:ExtCodeID", "Name": "C16352"}]}, {"CodedValue": "ASIAN", "OrderNumber": 3, "Alias": [{"Context": "nci:ExtCodeID", "Name": "C41260"}]}, {"CodedValue": "AMERICAN INDIAN OR ALASKA NATIVE", "OrderNumber": 4, "Alias": [{"Context": "nci:ExtCodeID", "Name": "C41259"}]}], "Alias": [{"Context": "nci:ExtCodeID", "Name": "C74457"}]}, {"OID": "CL.RACEN", "Name": "Race (N)", "DataType": "integer", "IsNonStandard": "Yes", "CodeListItem": [{"CodedValue": "1", "Decode": {"TranslatedText": [{"lang": "en", "_content": "WHITE"}]}}, {"CodedValue": "2", "Decode": {"TranslatedText": [{"lang": "en", "_content": "BLACK OR AFRICAN AMERICAN"}]}}, {"CodedValue": "6", "Decode": {"TranslatedText": [{"lang": "en", "_content": "AMERICAN INDIAN OR ALASKA NATIVE"}]}}, {"CodedValue": "7", "Decode": {"TranslatedText": [{"lang": "en", "_content": "ASIAN"}]}}]}, {"OID": "CL.SEX", "Name": "Sex", "DataType": "text", "StandardOID": "STD.CT.02", "CodeListItem": [{"CodedValue": "F", "Decode": {"TranslatedText": [{"lang": "en", "_content": "Female"}]}, "Alias": [{"Context": "nci:ExtCodeID", "Name": "C16576"}]}, {"CodedValue": "M", "Decode": {"TranslatedText": [{"lang": "en", "_content": "Male"}]}, "Alias": [{"Context": "nci:ExtCodeID", "Name": "C20197"}]}, {"CodedValue": "U", "Decode": {"TranslatedText": [{"lang": "en", "_content": "Unknown"}]}, "Alias": [{"Context": "nci:ExtCodeID", "Name": "C17998"}]}], "Alias": [{"Context": "nci:ExtCodeID", "Name": "C66731"}]}, {"OID": "CL.VISIT", "Name": "Visit", "DataType": "text", "IsNonStandard": "Yes", "EnumeratedItem": [{"CodedValue": "SCREENING 1", "OrderNumber": 1}, {"CodedValue": "UNSCHEDULED 1.1", "OrderNumber": 2}, {"CodedValue": "UNSCHEDULED 1.2", "OrderNumber": 3}, {"CodedValue": "UNSCHEDULED 1.3", "OrderNumber": 4}, {"CodedValue": "SCREENING 2", "OrderNumber": 5}, {"CodedValue": "BASELINE", "OrderNumber": 6}, {"CodedValue": "UNSCHEDULED 3.1", "OrderNumber": 7}, {"CodedValue": "AMBUL ECG PLACEMENT", "OrderNumber": 8}, {"CodedValue": "WEEK 2", "OrderNumber": 9}, {"CodedValue": "UNSCHEDULED 4.1", "OrderNumber": 10}, {"CodedValue": "UNSCHEDULED 4.2", "OrderNumber": 11}, {"CodedValue": "WEEK 4", "OrderNumber": 12}, {"CodedValue": "UNSCHEDULED 5.1", "OrderNumber": 13}, {"CodedValue": "AMBUL ECG REMOVAL", "OrderNumber": 14}, {"CodedValue": "UNSCHEDULED 6.1", "OrderNumber": 15}, {"CodedValue": "WEEK 6", "OrderNumber": 16}, {"CodedValue": "UNSCHEDULED 7.1", "OrderNumber": 17}, {"CodedValue": "WEEK 8", "OrderNumber": 18}, {"CodedValue": "WEEK 10 (T)", "OrderNumber": 19}, {"CodedValue": "UNSCHEDULED 8.2", "OrderNumber": 20}, {"CodedValue": "WEEK 12", "OrderNumber": 21}, {"CodedValue": "WEEK 14 (T)", "OrderNumber": 22}, {"CodedValue": "UNSCHEDULED 9.2", "OrderNumber": 23}, {"CodedValue": "UNSCHEDULED 9.3", "OrderNumber": 24}, {"CodedValue": "WEEK 16", "OrderNumber": 25}, {"CodedValue": "WEEK 18 (T)", "OrderNumber": 26}, {"CodedValue": "UNSCHEDULED 10.2", "OrderNumber": 27}, {"CodedValue": "WEEK 20", "OrderNumber": 28}, {"CodedValue": "WEEK 22 (T)", "OrderNumber": 29}, {"CodedValue": "UNSCHEDULED 11.2", "OrderNumber": 30}, {"CodedValue": "WEEK 24", "OrderNumber": 31}, {"CodedValue": "UNSCHEDULED 12.1", "OrderNumber": 32}, {"CodedValue": "WEEK 26", "OrderNumber": 33}, {"CodedValue": "UNSCHEDULED 13.1", "OrderNumber": 34}, {"CodedValue": "AE FOLLOW-UP", "OrderNumber": 35}, {"CodedValue": "RETRIEVAL", "OrderNumber": 36}, {"CodedValue": "Rash followup", "OrderNumber": 37}]}, {"OID": "CL.VISITNUM", "Name": "Visit Number", "DataType": "float", "IsNonStandard": "Yes", "CodeListItem": [{"CodedValue": "1", "OrderNumber": 1, "Decode": {"TranslatedText": [{"lang": "en", "_content": "SCREENING 1"}]}}, {"CodedValue": "1.1", "OrderNumber": 2, "Decode": {"TranslatedText": [{"lang": "en", "_content": "UNSCHEDULED 1.1"}]}}, {"CodedValue": "1.2", "OrderNumber": 3, "Decode": {"TranslatedText": [{"lang": "en", "_content": "UNSCHEDULED 1.2"}]}}, {"CodedValue": "1.3", "OrderNumber": 4, "Decode": {"TranslatedText": [{"lang": "en", "_content": "UNSCHEDULED 1.3"}]}}, {"CodedValue": "2", "OrderNumber": 5, "Decode": {"TranslatedText": [{"lang": "en", "_content": "SCREENING 2"}]}}, {"CodedValue": "3", "OrderNumber": 6, "Decode": {"TranslatedText": [{"lang": "en", "_content": "BASELINE"}]}}, {"CodedValue": "3.1", "OrderNumber": 7, "Decode": {"TranslatedText": [{"lang": "en", "_content": "UNSCHEDULED 3.1"}]}}, {"CodedValue": "3.5", "OrderNumber": 8, "Decode": {"TranslatedText": [{"lang": "en", "_content": "AMBUL ECG PLACEMENT"}]}}, {"CodedValue": "4", "OrderNumber": 9, "Decode": {"TranslatedText": [{"lang": "en", "_content": "WEEK 2"}]}}, {"CodedValue": "4.1", "OrderNumber": 10, "Decode": {"TranslatedText": [{"lang": "en", "_content": "UNSCHEDULED 4.1"}]}}, {"CodedValue": "4.2", "OrderNumber": 11, "Decode": {"TranslatedText": [{"lang": "en", "_content": "UNSCHEDULED 4.2"}]}}, {"CodedValue": "5", "OrderNumber": 12, "Decode": {"TranslatedText": [{"lang": "en", "_content": "WEEK 4"}]}}, {"CodedValue": "5.1", "OrderNumber": 13, "Decode": {"TranslatedText": [{"lang": "en", "_content": "UNSCHEDULED 5.1"}]}}, {"CodedValue": "6", "OrderNumber": 14, "Decode": {"TranslatedText": [{"lang": "en", "_content": "AMBUL ECG REMOVAL"}]}}, {"CodedValue": "6.1", "OrderNumber": 15, "Decode": {"TranslatedText": [{"lang": "en", "_content": "UNSCHEDULED 6.1"}]}}, {"CodedValue": "7", "OrderNumber": 16, "Decode": {"TranslatedText": [{"lang": "en", "_content": "WEEK 6"}]}}, {"CodedValue": "7.1", "OrderNumber": 17, "Decode": {"TranslatedText": [{"lang": "en", "_content": "UNSCHEDULED 7.1"}]}}, {"CodedValue": "8", "OrderNumber": 18, "Decode": {"TranslatedText": [{"lang": "en", "_content": "WEEK 8"}]}}, {"CodedValue": "8.1", "OrderNumber": 19, "Decode": {"TranslatedText": [{"lang": "en", "_content": "WEEK 10 (T)"}]}}, {"CodedValue": "8.2", "OrderNumber": 20, "Decode": {"TranslatedText": [{"lang": "en", "_content": "UNSCHEDULED 8.2"}]}}, {"CodedValue": "9", "OrderNumber": 21, "Decode": {"TranslatedText": [{"lang": "en", "_content": "WEEK 12"}]}}, {"CodedValue": "9.1", "OrderNumber": 22, "Decode": {"TranslatedText": [{"lang": "en", "_content": "WEEK 14 (T)"}]}}, {"CodedValue": "9.2", "OrderNumber": 23, "Decode": {"TranslatedText": [{"lang": "en", "_content": "UNSCHEDULED 9.2"}]}}, {"CodedValue": "9.3", "OrderNumber": 24, "Decode": {"TranslatedText": [{"lang": "en", "_content": "UNSCHEDULED 9.3"}]}}, {"CodedValue": "10", "OrderNumber": 25, "Decode": {"TranslatedText": [{"lang": "en", "_content": "WEEK 16"}]}}, {"CodedValue": "10.1", "OrderNumber": 26, "Decode": {"TranslatedText": [{"lang": "en", "_content": "WEEK 18 (T)"}]}}, {"CodedValue": "10.2", "OrderNumber": 27, "Decode": {"TranslatedText": [{"lang": "en", "_content": "UNSCHEDULED 10.2"}]}}, {"CodedValue": "11", "OrderNumber": 28, "Decode": {"TranslatedText": [{"lang": "en", "_content": "WEEK 20"}]}}, {"CodedValue": "11.1", "OrderNumber": 29, "Decode": {"TranslatedText": [{"lang": "en", "_content": "WEEK 22 (T)"}]}}, {"CodedValue": "11.2", "OrderNumber": 30, "Decode": {"TranslatedText": [{"lang": "en", "_content": "UNSCHEDULED 11.2"}]}}, {"CodedValue": "12", "OrderNumber": 31, "Decode": {"TranslatedText": [{"lang": "en", "_content": "WEEK 24"}]}}, {"CodedValue": "12.1", "OrderNumber": 32, "Decode": {"TranslatedText": [{"lang": "en", "_content": "UNSCHEDULED 12.1"}]}}, {"CodedValue": "13", "OrderNumber": 33, "Decode": {"TranslatedText": [{"lang": "en", "_content": "WEEK 26"}]}}, {"CodedValue": "13.1", "OrderNumber": 34, "Decode": {"TranslatedText": [{"lang": "en", "_content": "UNSCHEDULED 13.1"}]}}, {"CodedValue": "101", "OrderNumber": 35, "Decode": {"TranslatedText": [{"lang": "en", "_content": "AE FOLLOW-UP"}]}}, {"CodedValue": "201", "OrderNumber": 36, "Decode": {"TranslatedText": [{"lang": "en", "_content": "RETRIEVAL"}]}}, {"CodedValue": "501", "OrderNumber": 37, "Decode": {"TranslatedText": [{"lang": "en", "_content": "Rash followup"}]}}]}, {"OID": "CL.YN", "Name": "No Yes Response", "DataType": "text", "StandardOID": "STD.CT.02", "CodeListItem": [{"CodedValue": "N", "Decode": {"TranslatedText": [{"lang": "en", "_content": "No"}]}, "Alias": [{"Context": "nci:ExtCodeID", "Name": "C49487"}]}, {"CodedValue": "Y", "Decode": {"TranslatedText": [{"lang": "en", "_content": "Yes"}]}, "Alias": [{"Context": "nci:ExtCodeID", "Name": "C49488"}]}], "Alias": [{"Context": "nci:ExtCodeID", "Name": "C66742"}]}, {"OID": "CL.Y_BLANK", "Name": "No Yes Response - Y subset", "DataType": "text", "StandardOID": "STD.CT.02", "CodeListItem": [{"CodedValue": "Y", "Decode": {"TranslatedText": [{"lang": "en", "_content": "Yes"}]}, "Alias": [{"Context": "nci:ExtCodeID", "Name": "C49488"}]}], "Alias": [{"Context": "nci:ExtCodeID", "Name": "C66742"}]}, {"OID": "CL.AESEV", "Name": "Severity/Intensity Scale for Adverse Events", "DataType": "text", "StandardOID": "STD.CT.02", "CodeListItem": [{"CodedValue": "MILD", "Rank": 1.0, "Decode": {"TranslatedText": [{"lang": "en", "_content": "Grade 1"}]}, "Alias": [{"Context": "nci:ExtCodeID", "Name": "C41338"}]}, {"CodedValue": "MODERATE", "Rank": 2.0, "Decode": {"TranslatedText": [{"lang": "en", "_content": "Grade 2"}]}, "Alias": [{"Context": "nci:ExtCodeID", "Name": "C41339"}]}, {"CodedValue": "SEVERE", "Rank": 3.0, "Decode": {"TranslatedText": [{"lang": "en", "_content": "Grade 3"}]}, "Alias": [{"Context": "nci:ExtCodeID", "Name": "C41340"}]}], "Alias": [{"Context": "nci:ExtCodeID", "Name": "C66769"}]}, {"OID": "CL.AECAUS", "Name": "Causality", "DataType": "text", "IsNonStandard": "Yes", "EnumeratedItem": [{"CodedValue": "NONE", "Rank": 1.0}, {"CodedValue": "POSSIBLE", "Rank": 2.0}, {"CodedValue": "PROBABLE", "Rank": 3.0}, {"CodedValue": "REMOTE", "Rank": 4.0}]}, {"OID": "CL.OUT", "Name": "Outcome of Adverse Event", "DataType": "text", "StandardOID": "STD.CT.02", "EnumeratedItem": [{"CodedValue": "RECOVERED/RESOLVED", "Alias": [{"Context": "nci:ExtCodeID", "Name": "C49498"}]}, {"CodedValue": "NOT RECOVERED/NOT RESOLVED", "Alias": [{"Context": "nci:ExtCodeID", "Name": "C49494"}]}, {"CodedValue": "FATAL", "Alias": [{"Context": "nci:ExtCodeID", "Name": "C48275"}]}], "Alias": [{"Context": "nci:ExtCodeID", "Name": "C66768"}]}, {"OID": "CL.AEDICT", "Name": "Adverse Event Dictionary", "DataType": "text", "IsNonStandard": "Yes", "ExternalCodeList": {"Dictionary": "MedDRA", "Version": "8.0", "href": "http://www.meddra.org/"}}, {"OID": "CL.AEDICTN", "Name": "Adverse Event Dictionary (N)", "DataType": "integer", "IsNonStandard": "Yes", "ExternalCodeList": {"Dictionary": "MedDRA", "Version": "8.0", "href": "http://www.meddra.org/"}}], "MethodDef": [{"OID": "MT.ADQSADAS.AVISIT", "Name": "MT.ADQSADAS.AVISIT", "Type": "Computation", "Description": {"TranslatedText": [{"lang": "en", "_content": "Derived based on windowing algorithm described in SAP, Section 8.2"}]}}, {"OID": "MT.ADQSADAS.ADY", "Name": "MT.ADQSADAS.ADY", "Type": "Computation", "Description": {"TranslatedText": [{"lang": "en", "_content": "ADY = ADT - TRTSDT + 1, if ADT>=TRTSDT. ADY = ADT - TRTSDT, if ADT<TRTSDT."}]}}, {"OID": "MT.ADQSADAS.ADT", "Name": "MT.ADQSADAS.ADT", "Type": "Computation", "Description": {"TranslatedText": [{"lang": "en", "_content": "SAS date from QS.QSDTC"}]}}, {"OID": "MT.ADQSADAS.BASE", "Name": "MT.ADQSADAS.BASE", "Type": "Computation", "Description": {"TranslatedText": [{"lang": "en", "_content": "QS.QSSTRESN where QS.QSBLFL=Y (QS.VISITNUM=3)"}]}}, {"OID": "MT.ADQSADAS.CHG", "Name": "MT.ADQSADAS.CHG", "Type": "Computation", "Description": {"TranslatedText": [{"lang": "en", "_content": "AVAL - BASE"}]}}, {"OID": "MT.ADQSADAS.PCHG", "Name": "MT.ADQSADAS.PCHG", "Type": "Computation", "Description": {"TranslatedText": [{"lang": "en", "_content": "100* (CHG/BASE)"}]}}, {"OID": "MT.ADQSADAS.ANL01FL", "Name": "MT.ADQSADAS.ANL01FL", "Type": "Computation", "Description": {"TranslatedText": [{"lang": "en", "_content": "If multiple visits fall into the same visit window, then the one closest to the target day is chosen for analysis. These are flagged with ANL01FL=\"Y\"."}]}}, {"OID": "MT.ADQSADAS.AWTDIFF", "Name": "MT.ADQSADAS.AWTDIFF", "Type": "Computation", "Description": {"TranslatedText": [{"lang": "en", "_content": "Absolute difference between AWTARGET and ADY"}]}}, {"OID": "MT.ADSL.SITEGR1", "Name": "MT.ADSL.SITEGR1", "Type": "Computation", "Description": {"TranslatedText": [{"lang": "en", "_content": "refer to SAP, Section 7.1 - if not pooled then SITEGR1=SITEID. If pooled, SITEGR1 will be 900"}]}}, {"OID": "MT.ADSL.TRTSDT", "Name": "MT.ADSL.TRTSDT", "Type": "Computation", "Description": {"TranslatedText": [{"lang": "en", "_content": "SV.SVSTDTC where SV.VISITNUM=3, converted to SAS date"}]}}, {"OID": "MT.ADSL.TRTEDT", "Name": "MT.ADSL.TRTEDT", "Type": "Computation", "Description": {"TranslatedText": [{"lang": "en", "_content": "The date of final dose (from the CRF) is EX.EXENDTC on the subject's last EX record. If the date of final dose is missing for the subject and the subject discontinued after visit 3, use the date of discontinuation as the date of last dose. Convert the date to a SAS date."}]}}, {"OID": "MT.ADSL.TRTDURD", "Name": "MT.ADSL.TRTDURD", "Type": "Computation", "Description": {"TranslatedText": [{"lang": "en", "_content": "TRTEDT-TRTSDT+1"}]}}, {"OID": "MT.ADSL.AVGDD", "Name": "MT.ADSL.AVGDD", "Type": "Computation", "Description": {"TranslatedText": [{"lang": "en", "_content": "CUMDOSE/TRTDURD"}]}}, {"OID": "MT.ADSL.CUMDOSE", "Name": "MT.ADSL.CUMDOSE", "Type": "Computation", "Description": {"TranslatedText": [{"lang": "en", "_content": "For TRT01PN=0 or 54: CUMDOSE=TRT01PN*TRTDURD. \nFor TRT01PN=81: CUMDOSE will be based on \n  54 mg per day for the # of days subject was in 1st dosing interval \n    (i.e., Date of visit 4 - TRTSTDT+1 if 1st interval completed, TRTEDT-TRTSTDT+1 if subject discontinued <= Visit 4 (Week 4) and > Visit 3 (Baseline)), \n  81 mg per day for the # of days subject was in 2nd dosing interval \n    (i.e., Date of Visit 12 - Date of Visit 4 if 2nd interval completed, TRTEDT- Date of Visit 4 if subject discontinued <= Visit 12 (Week 24) and > Visit 4), \n  and 54 mg per day for the # of days subject was in 3rd dosing interval \n    (i.e., TRTEDT - Date of Visit 12 if subject continued after Visit 12)."}]}}, {"OID": "MT.ADSL.AGEGR1", "Name": "MT.ADSL.AGEGR1", "Type": "Computation", "Description": {"TranslatedText": [{"lang": "en", "_content": "Grouping of AGE into <65, 65-80, and >80"}]}}, {"OID": "MT.ADSL.SAFFL", "Name": "MT.ADSL.SAFFL", "Type": "Computation", "Description": {"TranslatedText": [{"lang": "en", "_content": "Y if ITTFL='Y' and TRTSDT ne missing. N otherwise"}]}}, {"OID": "MT.ADSL.ITTFL", "Name": "MT.ADSL.ITTFL", "Type": "Computation", "Description": {"TranslatedText": [{"lang": "en", "_content": "Y if ARMCD ne ' '. N otherwise"}]}}, {"OID": "MT.ADSL.EFFFL", "Name": "MT.ADSL.EFFFL", "Type": "Computation", "Description": {"TranslatedText": [{"lang": "en", "_content": "Y if SAFFL='Y AND subject has at least one record in QS for ADAS-Cog with QS.VISITNUM>3 AND at least one record in QS for CIBIC+ with QS.VISITNUM>3, N otherwise"}]}}, {"OID": "MT.ADSL.COMP8FL", "Name": "MT.ADSL.COMP8FL", "Type": "Computation", "Description": {"TranslatedText": [{"lang": "en", "_content": "Y if subject has a SV.VISITNUM=8 and TRTEDT>= date of visit 8, N otherwise"}]}}, {"OID": "MT.ADSL.COMP16FL", "Name": "MT.ADSL.COMP16FL", "Type": "Computation", "Description": {"TranslatedText": [{"lang": "en", "_content": "Y if subject has a SV.VISITNUM=10 and TRTEDT>=date of visit 10, N otherwise"}]}}, {"OID": "MT.ADSL.COMP24FL", "Name": "MT.ADSL.COMP24FL", "Type": "Computation", "Description": {"TranslatedText": [{"lang": "en", "_content": "Y if subject has a SV.VISITNUM=12 and TRTEDT>= date of visit 12 , N otherwise"}]}}, {"OID": "MT.ADSL.DISCONFL", "Name": "MT.ADSL.DISCONFL", "Type": "Computation", "Description": {"TranslatedText": [{"lang": "en", "_content": "Y if EOSSTT='DISCONTINUED'. Null otherwise"}]}}, {"OID": "MT.ADSL.DSRAEFL", "Name": "MT.ADSL.DSRAEFL", "Type": "Computation", "Description": {"TranslatedText": [{"lang": "en", "_content": "Y if DCSREAS='Adverse Event'. Null otherwise"}]}}, {"OID": "MT.ADSL.BMIBL", "Name": "MT.ADSL.BMIBL", "Type": "Computation", "Description": {"TranslatedText": [{"lang": "en", "_content": "WEIGHTBL / ((HEIGHTBL*100)**2)"}]}}, {"OID": "MT.ADSL.BMIBLGR1", "Name": "MT.ADSL.BMIBLGR1", "Type": "Computation", "Description": {"TranslatedText": [{"lang": "en", "_content": "BMIBLGR1=Normal if . < BMIBL <25. BMIBLGR1=Overweight if 25 <=BMIBL <30. BMIBLGR1=Obese if BMIBL >=30"}]}}, {"OID": "MT.ADSL.HEIGHTBL", "Name": "MT.ADSL.HEIGHTBL", "Type": "Computation", "Description": {"TranslatedText": [{"lang": "en", "_content": "VS.VSSTRESN where VS.VSTESTCD='HEIGHT' and VS.VISITNUM=1"}]}}, {"OID": "MT.ADSL.WEIGHTBL", "Name": "MT.ADSL.WEIGHTBL", "Type": "Computation", "Description": {"TranslatedText": [{"lang": "en", "_content": "VS.VSSTRESN where VS.VSTESTCD='WEIGHT' and VS.VISITNUM=3"}]}}, {"OID": "MT.ADSL.EDUCLVL", "Name": "MT.ADSL.EDUCLVL", "Type": "Computation", "Description": {"TranslatedText": [{"lang": "en", "_content": "SC.SCSTRESN where SC.SCTESTCD=\"EDLEVEL\""}]}}, {"OID": "MT.ADSL.DISONDT", "Name": "MT.ADSL.DISONDT", "Type": "Computation", "Description": {"TranslatedText": [{"lang": "en", "_content": "MH.MHSTDTC where MH.MHCAT='PRIMARY DIAGNOSIS' converted to SAS date"}]}}, {"OID": "MT.ADSL.DURDIS", "Name": "MT.ADSL.DURDIS", "Type": "Computation", "Description": {"TranslatedText": [{"lang": "en", "_content": "number of months between Date of VISIT 1 and DISONDT"}]}}, {"OID": "MT.ADSL.DURDSGR1", "Name": "MT.ADSL.DURDSGR1", "Type": "Computation", "Description": {"TranslatedText": [{"lang": "en", "_content": "grouping DURDIS values as <12 and >=12"}]}}, {"OID": "MT.ADSL.VISIT1DT", "Name": "MT.ADSL.VISIT1DT", "Type": "Computation", "Description": {"TranslatedText": [{"lang": "en", "_content": "SV.SVSTDTC where SV.VISITNUM=1, converted to SAS date"}]}}, {"OID": "MT.ADSL.VISNUMEN", "Name": "MT.ADSL.VISNUMEN", "Type": "Computation", "Description": {"TranslatedText": [{"lang": "en", "_content": "If DS.VISITNUM=13 where DS.DSTERM='PROTOCOL COMPLETED' then VISNUMEN=12, otherwise VISNUMEN=DS.VISITNUM where DS.DSTERM='PROTOCOL COMPLETED'"}]}}, {"OID": "MT.ADSL.RFENDT", "Name": "MT.ADSL.RFENDT", "Type": "Computation", "Description": {"TranslatedText": [{"lang": "en", "_content": "RFENDTC converted to SAS date"}]}}, {"OID": "MT.ADSL.EOSSTT", "Name": "MT.ADSL.EOSSTT", "Type": "Computation", "Description": {"TranslatedText": [{"lang": "en", "_content": "If DS.DSDECOD='COMPLETED' then EOSSTT='COMPLETED'. Otherwise EOSSTT='DISCONTINUED'."}]}}, {"OID": "MT.ADSL.DCSREAS", "Name": "MT.ADSL.DCSREAS", "Type": "Computation", "Description": {"TranslatedText": [{"lang": "en", "_content": "If DS.DSCAT='DISPOSITION EVENT' and DS.DSTERM in('I/E NOT MET' 'SPONSOR DECISION' 'WITHDREW CONSENT') then DCSREAS=DS.DSTERM. Otherwise if DS.DSCAT='DISPOSITION EVENT' then DCSREAS=DS.DSDECOD. Convert to mixed case to match display format."}]}}, {"OID": "MT.ADSL.MMS1TSBL", "Name": "MT.ADSL.MMS1TSBL", "Type": "Computation", "Description": {"TranslatedText": [{"lang": "en", "_content": "Sum of FT.FTSTRESN values where FT.FTCAT=\"MMSE\" for the subject (FT.FTTESTCD= 'MMS101A'-'MMS111')"}]}}, {"OID": "MT.ADQSADAS.AVAL.ACTOT", "Name": "MT.ADQSADAS.AVAL.ACTOT", "Type": "Computation", "Description": {"TranslatedText": [{"lang": "en", "_content": "Sum of ADAS scores for items 1, 2, 4, 5, 6, 7, 8, 11, 12, 13, and 14, see ADRG for details on adjusting for missing values."}]}, "DocumentRef": [{"leafID": "LF.ADRG", "PDFPageRef": [{"PageRefs": "3", "Type": "PhysicalRef"}]}]}, {"OID": "MT.ADAE.ASTDT", "Name": "MT.ADAE.ASTDT", "Type": "Computation", "Description": {"TranslatedText": [{"lang": "en", "_content": "AE.AESTDTC, converted to a numeric SAS date. Some events with partial dates are imputed in a conservative manner. If the day component is missing, a value of '01' is used. If both the month and day are missing no imputation is performed as these dates clearly indicate a start prior to the beginning of treatment. There are no events with completely missing start dates."}]}}, {"OID": "MT.ADAE.ASTDTF", "Name": "MT.ADAE.ASTDTF", "Type": "Computation", "Description": {"TranslatedText": [{"lang": "en", "_content": "ASTDTF='D' if the day value within the character date is imputed. Note that only day values needed to be imputed for this study"}]}}, {"OID": "MT.ADAE.ASTDY", "Name": "MT.ADAE.ASTDY", "Type": "Computation", "Description": {"TranslatedText": [{"lang": "en", "_content": "IF ASTDT>=TRTSDT>MISSING then ASTDY=ASTDT-TRTSDT+1 Else if TRTSDT>ASTDT>MISSING then ASTDY=ASTDT-TRTSDT"}]}}, {"OID": "MT.ADAE.AENDT", "Name": "MT.ADAE.AENDT", "Type": "Computation", "Description": {"TranslatedText": [{"lang": "en", "_content": "AE.AEENDTC, converted to a numeric SAS date"}]}}, {"OID": "MT.ADAE.AENDY", "Name": "MT.ADAE.AENDY", "Type": "Computation", "Description": {"TranslatedText": [{"lang": "en", "_content": "IF AENDT>=TRTSDT>MISSING then AENDY=AENDT-TRTSDT+1 Else if TRTSDT>AENDT>MISSING then AENDY=AENDT-TRTSDT"}]}}, {"OID": "MT.ADAE.ADURN", "Name": "MT.ADAE.ADURN", "Type": "Computation", "Description": {"TranslatedText": [{"lang": "en", "_content": "ADURN=AENDT-ASTDT+1"}]}}, {"OID": "MT.ADAE.ADURU", "Name": "MT.ADAE.ADURU", "Type": "Computation", "Description": {"TranslatedText": [{"lang": "en", "_content": "If ADURN is not missing then ADURU='DAY'"}]}}, {"OID": "MT.ADAE.TRTEMFL", "Name": "MT.ADAE.TRTEMFL", "Type": "Computation", "Description": {"TranslatedText": [{"lang": "en", "_content": "If ASTDT >= TRTSDT > . then TRTEMFL='Y'. Otherwise TRTEMFL='N'"}]}}, {"OID": "MT.ADAE.AOCCFL", "Name": "MT.ADAE.AOCCFL", "Type": "Computation", "Description": {"TranslatedText": [{"lang": "en", "_content": "Subset to TRTEMFL='Y' and sort by Subject (USUBJID), Start Date (ASTDT), and Sequence Number (AESEQ) and flag the first record (set AOCCFL=\u2019Y\u2019) within each Subject"}]}}, {"OID": "MT.ADAE.AOCCSFL", "Name": "MT.ADAE.AOCCSFL", "Type": "Computation", "Description": {"TranslatedText": [{"lang": "en", "_content": "Subset to TRTEMFL='Y' and sort by Subject (USUBJID), System Organ Class (AEBODSYS), Start Date (ASTDT), and Sequence Number (AESEQ) and flag the first record (set AOCCSFL=\u2019Y\u2019) within each Subject and SOC"}]}}, {"OID": "MT.ADAE.AOCCPFL", "Name": "MT.ADAE.AOCCPFL", "Type": "Computation", "Description": {"TranslatedText": [{"lang": "en", "_content": "Subset to TRTEMFL='Y' and sort by Subject (USUBJID), System Organ Class (AEBODSYS), Preferred Term (AEDECOD), Start Date (ASTDT), and Sequence Number (AESEQ) and flag the first record (set AOCCPFL=\u2019Y\u2019) within each Subject, SOC, and PT"}]}}, {"OID": "MT.ADAE.AOCC02FL", "Name": "MT.ADAE.AOCC02FL", "Type": "Computation", "Description": {"TranslatedText": [{"lang": "en", "_content": "Subset to TRTEMFL='Y' and AESER='Y' and sort by Subject (USUBJID), Start Date (ASTDT), and Sequence Number (AESEQ) and flag the first record (set AOCC02FL=\u2019Y\u2019) within each Subject"}]}}, {"OID": "MT.ADAE.AOCC03FL", "Name": "MT.ADAE.AOCC03FL", "Type": "Computation", "Description": {"TranslatedText": [{"lang": "en", "_content": "Subset to TRTEMFL='Y' and AESER='Y' and sort by Subject (USUBJID), System Organ Class (AEBODSYS), Start Date (ASTDT), and Sequence Number (AESEQ) and flag the first record (set AOCC03FL=\u2019Y\u2019) within each Subject and SOC"}]}}, {"OID": "MT.ADAE.AOCC04FL", "Name": "MT.ADAE.AOCC04FL", "Type": "Computation", "Description": {"TranslatedText": [{"lang": "en", "_content": "Subset to TRTEMFL='Y' and AESER='Y' and sort by Subject (USUBJID), System Organ Class (AEBODSYS), Preferred Term (AEDECOD), Start Date (ASTDT), and Sequence Number (AESEQ) and flag the first record (set AOCC04FL=\u2019Y\u2019) within each Subject, SOC, and PT"}]}}, {"OID": "MT.ADAE.CQ01NAM", "Name": "MT.ADAE.CQ01NAM", "Type": "Computation", "Description": {"TranslatedText": [{"lang": "en", "_content": "If AEDECOD contains any of the character strings of ('APPLICATION', 'DERMATITIS', 'ERYTHEMA', 'BLISTER') OR if AEBODSYS='SKIN AND SUBC UTANEOUS TISSUE DISORDERS' but AEDECOD is not in ('COLD SWEAT', 'HYPERHIDROSIS', 'ALOPECIA') then CQ01NAM='DERMATOLOGIC EVENTS' Otherwise CQ01NAM=NULL"}]}}, {"OID": "MT.ADAE.AOCC01FL", "Name": "MT.ADAE.AOCC01FL", "Type": "Computation", "Description": {"TranslatedText": [{"lang": "en", "_content": "Subset to CQ01NAM='' and TRTEMFL='Y' and sort by Subject (USUBJID), Start Date (ASTDT), and Sequence Number (AESEQ) and flag the first record (set AOCC01FL=\u2019Y\u2019) within each Subject (Flag First Treatment Emergent Dermatological Event for Time to Event Analysis)"}]}}], "CommentDef": [{"OID": "COM.ADSL", "Description": {"TranslatedText": [{"lang": "en", "_content": "Screen Failures are excluded since they are not needed for this study analysis. See referenced dataset creation program and ADRG"}]}, "DocumentRef": [{"leafID": "LF.ADSL.PGM"}, {"leafID": "LF.ADRG", "PDFPageRef": [{"PageRefs": "6", "Type": "PhysicalRef"}]}]}, {"OID": "COM.ADAE", "Description": {"TranslatedText": [{"lang": "en", "_content": "See SAS program"}]}, "DocumentRef": [{"leafID": "LF.CODE.001"}]}, {"OID": "COM.ADQSADAS", "Description": {"TranslatedText": [{"lang": "en", "_content": "See referenced dataset creation program and ADRG"}]}, "DocumentRef": [{"leafID": "LF.ADQSADAS.PGM"}, {"leafID": "LF.ADRG", "PDFPageRef": [{"PageRefs": "Section2.1", "Type": "NamedDestination"}]}]}, {"OID": "COM.JOIN-ADSL-ADAE", "Description": {"TranslatedText": [{"lang": "en", "_content": "Get denominators for percentages from ADSL and counts and numerators from ADAE. Join ADAE with ADSL based on the unique subject identifier (USUBJID) keeping only records in ADAE for the numerator."}]}}, {"OID": "COM.ADQSADAS.AVISITN", "Description": {"TranslatedText": [{"lang": "en", "_content": "Numeric code for AVISIT"}]}}, {"OID": "COM.ADQSADAS.PARAMN", "Description": {"TranslatedText": [{"lang": "en", "_content": "Numeric code for PARAM"}]}}, {"OID": "COM.ADQSADAS.AWRANGE", "Description": {"TranslatedText": [{"lang": "en", "_content": "Window range, specified in the SAP."}]}}, {"OID": "COM.ADQSADAS.AWTARGET", "Description": {"TranslatedText": [{"lang": "en", "_content": "Target day within the window, specified in the SAP."}]}}, {"OID": "COM.ADQSADAS.AWLO", "Description": {"TranslatedText": [{"lang": "en", "_content": "Start day of the window, specified in the SAP."}]}}, {"OID": "COM.ADQSADAS.AWHI", "Description": {"TranslatedText": [{"lang": "en", "_content": "End day of the window, specified in the SAP."}]}}, {"OID": "COM.ADQSADAS.AWU", "Description": {"TranslatedText": [{"lang": "en", "_content": "Assigned as \"DAYS\"."}]}}, {"OID": "COM.ADSL.TRT01PN", "Description": {"TranslatedText": [{"lang": "en", "_content": "Numeric code for TRT01P"}]}}, {"OID": "COM.ADSL.TRT01A", "Description": {"TranslatedText": [{"lang": "en", "_content": "TRT01A=TRT01P, i.e., no difference between actual and randomized treatment in this study."}]}}, {"OID": "COM.ADSL.TRT01AN", "Description": {"TranslatedText": [{"lang": "en", "_content": "Numeric code for TRT01A"}]}}, {"OID": "COM.ADSL.AGEGR1N", "Description": {"TranslatedText": [{"lang": "en", "_content": "Numeric code for AGEGR1"}]}}, {"OID": "COM.ADSL.RACEN", "Description": {"TranslatedText": [{"lang": "en", "_content": "Numeric code for RACE"}]}}, {"OID": "COM.ADQSADAS.DTYPE.ACITM01-ACITM14", "Description": {"TranslatedText": [{"lang": "en", "_content": "Value: null"}]}}, {"OID": "COM.ADQSADAS.DTYPE.ACTOT", "Description": {"TranslatedText": [{"lang": "en", "_content": "Value: LOCF denotes that the LOCF imputation method was used to impute the value for the given parameter and analysis visit."}]}}, {"OID": "COM.ADQSADAS.QSSEQ.ACTOT", "Description": {"TranslatedText": [{"lang": "en", "_content": "Set QSSEQ to missing for post baseline records. Set to QS.QSSEQ where QS.VISIT=BASELINE and QS.QSTESTCD=ACTOT."}]}}, {"OID": "COM.STDCT.01", "Description": {"TranslatedText": [{"lang": "en", "_content": "ADaM specific CT is applicable for a few variables only."}]}}, {"OID": "COM.STDCT.02", "Description": {"TranslatedText": [{"lang": "en", "_content": "SDTM CT is applicable for variables copied from SDTM to ADaM."}]}}], "leaf": [{"ID": "LF.ADRG", "href": "adrg.pdf", "title": {"_content": "Analysis Data Reviewer's Guide"}}, {"ID": "LF.ADQSADAS.PGM", "href": "../programs/adqsadas-sas.txt", "title": {"_content": "adqsadas.sas"}}, {"ID": "LF.CODE.001", "href": "../programs/adae-sas.txt", "title": {"_content": "adae.sas"}}, {"ID": "LF.ADSL.PGM", "href": "../programs/adsl-sas.txt", "title": {"_content": "adsl.sas"}}, {"ID": "LF.CSR", "href": "../dummy-csr/dummy-csr.pdf", "title": {"_content": "Clinical Study Report"}}, {"ID": "LF.at14-5-02.sas", "href": "../programs/at14-5-02-sas.txt", "title": {"_content": "at14-5-02.sas"}}], "AnalysisResultDisplays": {"ResultDisplay": [{"OID": "RD.Table_14-3.01", "Name": "Table 14-3.01", "Description": {"TranslatedText": [{"lang": "en", "_content": "Primary Endpoint Analysis: ADAS-Cog - Summary at Week 24 - LOCF (Efficacy Population)"}]}, "DocumentRef": [{"leafID": "LF.CSR", "PDFPageRef": [{"PageRefs": "2", "Type": "PhysicalRef", "Title": "Table 14-3.01"}]}], "AnalysisResult": [{"OID": "AR.Table_14-3.01.R.1", "ParameterOID": "IT.ADQSADAS.PARAMCD", "AnalysisReason": "SPECIFIED IN SAP", "AnalysisPurpose": "PRIMARY OUTCOME MEASURE", "Description": {"TranslatedText": [{"lang": "en", "_content": "Dose response analysis for ADAS-Cog changes from baseline"}]}, "AnalysisDatasets": {"AnalysisDataset": [{"ItemGroupOID": "IG.ADQSADAS", "WhereClauseRef": {"WhereClauseOID": "WC.Table_14-3.01.R.1.ADQSADAS"}, "AnalysisVariable": [{"ItemOID": "IT.ADQSADAS.CHG"}]}]}, "Documentation": {"Description": {"TranslatedText": [{"lang": "en", "_content": "Linear model analysis of CHG for dose response; using randomized dose (0 for placebo; 54 for low dose; 81 for high dose) and site group in model. Used PROC GLM in SAS to produce p-value (from Type III SS for treatment dose).\n              "}]}, "DocumentRef": [{"leafID": "LF.CSR", "PDFPageRef": [{"PageRefs": "4", "Type": "PhysicalRef", "Title": "SAP Section 10.1.1"}]}]}, "ProgrammingCode": {"Context": "SAS version 9.2", "Code": {"_content": "\nproc glm data = ADQSADAS;\n  where EFFFL='Y' and ANL01FL='Y' and AVISIT='Week 24' and PARAMCD=\"ACTOT\";\n  class SITEGR1;\n  model CHG = TRTPN SITEGR1;\nrun;\n            "}}}, {"OID": "AR.Table_14-3.01.R.2", "ParameterOID": "IT.ADQSADAS.PARAMCD", "AnalysisReason": "SPECIFIED IN SAP", "AnalysisPurpose": "PRIMARY OUTCOME MEASURE", "Description": {"TranslatedText": [{"lang": "en", "_content": "Pairwise comparisons to placebo for ADAS-Cog changes from baseline"}]}, "AnalysisDatasets": {"AnalysisDataset": [{"ItemGroupOID": "IG.ADQSADAS", "WhereClauseRef": {"WhereClauseOID": "WC.Table_14-3.01.R.2.ADQSADAS"}, "AnalysisVariable": [{"ItemOID": "IT.ADQSADAS.CHG"}]}]}, "Documentation": {"Description": {"TranslatedText": [{"lang": "en", "_content": "ANCOVA analysis of CHG performed to provide pairwise comparisons among treatment groups and adjusted means; using randomized treatment as class variable and site group as class variable in model and the baseline value as a covariate.\n              "}]}, "DocumentRef": [{"leafID": "LF.CSR", "PDFPageRef": [{"PageRefs": "4", "Type": "PhysicalRef", "Title": "SAP Section 10.1.1"}]}]}, "ProgrammingCode": {"Context": "SAS version 9.2", "Code": {"_content": "\nproc glm data = ADQSADAS;\n  where EFFFL='Y' and ANL01FL='Y' and AVISIT='Week 24' and PARAMCD=\"ACTOT\";\n  class TRTPN SITEGR1;\n  model CHG = TRTPN SITEGR1 BASE;\n  means TRTPN;\n  lsmeans TRTPN / OM STDERR PDIFF CL;\nrun;\n            "}}}]}, {"OID": "RD.Table_14-5.02", "Name": "Table 14-5.02", "Description": {"TranslatedText": [{"lang": "en", "_content": "Incidence of Treatment Emergent Serious Adverse Events by Treatment Group"}]}, "DocumentRef": [{"leafID": "LF.CSR", "PDFPageRef": [{"PageRefs": "3", "Type": "PhysicalRef", "Title": "Table 14-5.02"}]}], "AnalysisResult": [{"OID": "AR.Table_14-5.02.R.1", "AnalysisReason": "SPECIFIED IN SAP", "AnalysisPurpose": "PRIMARY OUTCOME MEASURE", "Description": {"TranslatedText": [{"lang": "en", "_content": "Incidence of Treatment Emergent Serious Adverse Events by Treatment Group"}]}, "AnalysisDatasets": {"CommentOID": "COM.JOIN-ADSL-ADAE", "AnalysisDataset": [{"ItemGroupOID": "IG.ADAE", "WhereClauseRef": {"WhereClauseOID": "WC.Table_14-5.02.R.1.ADAE"}, "AnalysisVariable": [{"ItemOID": "IT.ADAE.AEBODSYS"}, {"ItemOID": "IT.ADAE.AEDECOD"}]}, {"ItemGroupOID": "IG.ADSL", "WhereClauseRef": {"WhereClauseOID": "WC.Table_14-5.02.R.1.ADSL"}}]}, "Documentation": {"Description": {"TranslatedText": [{"lang": "en", "_content": "Unique count of subjects that experienced an Adverse Event by Preferred Term, System Organ Class, and Treatment Group and percentages based on the number of subjects in the safety population within each treatment group. The total number of times an event occurred was recorded by Preferred Term, System Organ Class, and Treatment Group. Fisher's exact test was used for treatment comparison of event rates.\n                "}]}, "DocumentRef": [{"leafID": "LF.CSR", "PDFPageRef": [{"PageRefs": "5", "Type": "PhysicalRef", "Title": "SAP Section 11.2"}]}]}, "ProgrammingCode": {"Context": "SAS version 9.2", "DocumentRef": [{"leafID": "LF.at14-5-02.sas"}]}}]}]}}}}