{"CreationDateTime": "2011-10-24T10:05:00", "Description": "CDASH Publication", "FileOID": "CDASH_File_2011-10-24", "FileType": "Snapshot", "Granularity": "Metadata", "ODMVersion": "1.3.2", "Originator": "Trace-XML", "Study": [{"OID": "trace-xml-safety01", "GlobalVariables": {"StudyName": {"_content": "Test Study 003"}, "StudyDescription": {"_content": "Test Study 003 created by API"}, "ProtocolName": {"_content": "Test Study 003 created by API"}}, "MetaDataVersion": [{"Name": "TRACE-XML MDV", "OID": "MDV.TRACE-XML-ODM-01", "Protocol": {"StudyEventRef": [{"Mandatory": "Yes", "OrderNumber": 1, "StudyEventOID": "BASELINE"}]}, "StudyEventDef": [{"Name": "Baseline Visit", "OID": "BASELINE", "Repeating": "No", "Type": "Scheduled", "FormRef": [{"FormOID": "ODM.F.DM", "Mandatory": "Yes", "OrderNumber": 1}, {"FormOID": "ODM.F.VS", "Mandatory": "Yes", "OrderNumber": 2}, {"FormOID": "ODM.F.AE", "Mandatory": "Yes", "OrderNumber": 3}]}], "FormDef": [{"Name": "Demographics", "OID": "ODM.F.DM", "Repeating": "No", "ItemGroupRef": [{"ItemGroupOID": "ODM.IG.COMMON", "Mandatory": "Yes"}, {"ItemGroupOID": "ODM.IG.DM", "Mandatory": "Yes"}]}, {"Name": "Vital Signs", "OID": "ODM.F.VS", "Repeating": "No", "ItemGroupRef": [{"ItemGroupOID": "ODM.IG.COMMON", "Mandatory": "Yes"}, {"ItemGroupOID": "ODM.IG.VS_GENERAL", "Mandatory": "Yes"}, {"ItemGroupOID": "ODM.IG.VS", "Mandatory": "Yes"}]}, {"Name": "Adverse Event", "OID": "ODM.F.AE", "Repeating": "No", "ItemGroupRef": [{"ItemGroupOID": "ODM.IG.AEYN", "Mandatory": "Yes"}, {"ItemGroupOID": "ODM.IG.AE", "Mandatory": "Yes"}]}, {"Name": "Not Displayed", "OID": "ODM.F.RACE", "Repeating": "No", "ItemGroupRef": [{"ItemGroupOID": "ODM.IG.RACE", "Mandatory": "No"}]}], "ItemGroupDef": [{"Name": "Common", "OID": "ODM.IG.COMMON", "Repeating": "No", "ItemRef": [{"ItemOID": "ODM.IT.Common.StudyID", "Mandatory": "Yes"}, {"ItemOID": "ODM.IT.Common.SiteID", "Mandatory": "Yes"}, {"ItemOID": "ODM.IT.Common.SubjectID", "Mandatory": "Yes"}, {"ItemOID": "ODM.IT.Common.Visit", "Mandatory": "Yes"}]}, {"Name": "Demographics", "OID": "ODM.IG.DM", "Repeating": "No", "ItemRef": [{"ItemOID": "ODM.IT.DM.BRTHYR", "Mandatory": "Yes"}, {"ItemOID": "ODM.IT.DM.BRTHMO", "Mandatory": "Yes"}, {"ItemOID": "ODM.IT.DM.BRTHDY", "Mandatory": "Yes"}, {"ItemOID": "ODM.IT.DM.SEX", "Mandatory": "Yes"}, {"ItemOID": "ODM.IT.DM.ETHNIC", "Mandatory": "Yes"}, {"ItemOID": "ODM.IT.DM.RACE", "Mandatory": "Yes"}, {"ItemOID": "ODM.IT.DM.RACEOTH", "Mandatory": "Yes"}]}, {"Name": "General information", "OID": "ODM.IG.VS_GENERAL", "Repeating": "No", "ItemRef": [{"ItemOID": "ODM.IT.VS.VSPERF", "Mandatory": "Yes"}]}, {"Name": "Vital Sign Measurement", "OID": "ODM.IG.VS", "Repeating": "Yes", "ItemRef": [{"ItemOID": "ODM.IT.VS.VSDAT", "Mandatory": "Yes"}, {"ItemOID": "ODM.IT.VS.HEIGHT.VSORRES", "Mandatory": "Yes"}, {"ItemOID": "ODM.IT.VS.HEIGHT.VSORRESU", "Mandatory": "Yes"}, {"ItemOID": "ODM.IT.VS.WEIGHT.VSORRES", "Mandatory": "Yes"}, {"ItemOID": "ODM.IT.VS.WEIGHT.VSORRESU", "Mandatory": "Yes"}, {"ItemOID": "ODM.IT.VS.BP.DIABP.VSORRES", "Mandatory": "Yes"}, {"ItemOID": "ODM.IT.VS.BP.SYSBP.VSORRES", "Mandatory": "Yes"}, {"ItemOID": "ODM.IT.VS.BP.VSORRESU", "Mandatory": "Yes"}, {"ItemOID": "ODM.IT.VS.BP.VSLOC", "Mandatory": "Yes"}, {"ItemOID": "ODM.IT.VS.BP.VSPOS", "Mandatory": "Yes"}, {"ItemOID": "ODM.IT.VS.PULSE.VSORRES", "Mandatory": "Yes"}, {"ItemOID": "ODM.IT.VS.PULSE.VSORRESU", "Mandatory": "Yes"}, {"ItemOID": "ODM.IT.VS.PULSE.VSLOC", "Mandatory": "Yes"}, {"ItemOID": "ODM.IT.VS.PULSE.VSPOS", "Mandatory": "Yes"}, {"ItemOID": "ODM.IT.VS.TEMP.VSORRES", "Mandatory": "Yes"}, {"ItemOID": "ODM.IT.VS.TEMP.VSORRESU", "Mandatory": "Yes"}, {"ItemOID": "ODM.IT.VS.TEMP.VSLOC", "Mandatory": "Yes"}, {"ItemOID": "ODM.IT.VS.FRMSIZE.VSORRES", "Mandatory": "Yes"}]}, {"Name": "RACE Options", "OID": "ODM.IG.RACE", "Repeating": "No", "ItemRef": [{"ItemOID": "ODM.IT.DM.RACE.SIOUX", "Mandatory": "No"}, {"ItemOID": "ODM.IT.DM.RACE.APACHE", "Mandatory": "No"}, {"ItemOID": "ODM.IT.DM.RACE.CHEROKEE", "Mandatory": "No"}, {"ItemOID": "ODM.IT.DM.RACE.HAWAIIAN", "Mandatory": "No"}, {"ItemOID": "ODM.IT.DM.RACE.WHITE", "Mandatory": "No"}]}, {"Name": "General information", "OID": "ODM.IG.AEYN", "Repeating": "No", "ItemRef": [{"ItemOID": "ODM.IT.AE.AEYN", "Mandatory": "Yes"}]}, {"Name": "Details", "OID": "ODM.IG.AE", "Repeating": "Yes", "ItemRef": [{"ItemOID": "ODM.IT.AE.AETERM", "Mandatory": "Yes"}, {"ItemOID": "ODM.IT.AE.AESEV", "Mandatory": "Yes"}, {"ItemOID": "ODM.IT.AE.AESER", "Mandatory": "Yes"}, {"ItemOID": "ODM.IT.AE.AEACN", "Mandatory": "Yes"}, {"ItemOID": "ODM.IT.AE.AEREL", "Mandatory": "Yes"}, {"ItemOID": "ODM.IT.AE.AESTDTC", "Mandatory": "Yes"}, {"ItemOID": "ODM.IT.AE.AEENDTC", "Mandatory": "Yes"}, {"ItemOID": "ODM.IT.AE.AEONGO", "Mandatory": "Yes"}]}], "ItemDef": [{"DataType": "text", "Length": 20, "Name": "Protocol/Study", "OID": "ODM.IT.Common.StudyID", "Description": {"TranslatedText": [{"lang": "en", "_content": "Unique identifier for a study."}]}, "Question": {"TranslatedText": [{"lang": "en", "_content": "Protocol/Study"}]}, "Alias": [{"Context": "CDASH", "Name": "STUDYID"}, {"Context": "SDTM", "Name": "STUDYID"}]}, {"DataType": "text", "Length": 20, "Name": "Site", "OID": "ODM.IT.Common.SiteID", "Description": {"TranslatedText": [{"lang": "en", "_content": "Unique identifier for the study site; however, SITEID is also unique within a submission."}]}, "Question": {"TranslatedText": [{"lang": "en", "_content": "Site"}]}, "Alias": [{"Context": "CDASH", "Name": "SITEID"}, {"Context": "CDASH/SDTM", "Name": "SITEID"}]}, {"DataType": "text", "Length": 20, "Name": "Subject", "OID": "ODM.IT.Common.SubjectID", "Description": {"TranslatedText": [{"lang": "en", "_content": "Subject identifier for the study."}]}, "Question": {"TranslatedText": [{"lang": "en", "_content": "Subject"}]}, "Alias": [{"Context": "CDASH", "Name": "SUBJID"}, {"Context": "SDTM", "Name": "SUBJID"}]}, {"DataType": "date", "Name": "Visit Date", "OID": "ODM.IT.Common.Visit", "SASFieldName": "VISITDAT", "SDSVarName": "RFSTDTC", "Question": {"TranslatedText": [{"lang": "en", "_content": "Visit Date"}]}, "Alias": [{"Context": "CDASH", "Name": "VISITDAT"}, {"Context": "SDTM", "Name": "RFSTDTC"}]}, {"DataType": "text", "Length": 1, "Name": "Any AEs?", "OID": "ODM.IT.AE.AEYN", "Description": {"TranslatedText": [{"lang": "en", "_content": "General prompt question regarding whether or not any AEs were experienced during the study. This provides verification that all other fields on the CRF were deliberately left blank."}]}, "Question": {"TranslatedText": [{"lang": "en", "_content": "Any AEs?"}]}, "CodeListRef": {"CodeListOID": "ODM.CL.NY_SUB_Y_N"}, "Alias": [{"Context": "CDASH", "Name": "AEYN"}]}, {"DataType": "text", "Length": 999, "Name": "Adverse Event", "OID": "ODM.IT.AE.AETERM", "Description": {"TranslatedText": [{"lang": "en", "_content": "Verbatim (i.e., investigator-reported term) description of the adverse event."}]}, "Question": {"TranslatedText": [{"lang": "en", "_content": "Adverse Event"}]}, "Alias": [{"Context": "CDASH", "Name": "AETERM"}, {"Context": "CDASH/SDTM", "Name": "AETERM"}]}, {"DataType": "partialDatetime", "Name": "Start Date and Time", "OID": "ODM.IT.AE.AESTDTC", "Description": {"TranslatedText": [{"lang": "en", "_content": "Date and Time when the adverse event started."}]}, "Question": {"TranslatedText": [{"lang": "en", "_content": "Start Date and Time"}]}, "Alias": [{"Context": "CDASH", "Name": "AESTDTC"}, {"Context": "CDASH/SDTM", "Name": "AESTDTC"}]}, {"DataType": "partialDatetime", "Name": "End Date and Time", "OID": "ODM.IT.AE.AEENDTC", "Description": {"TranslatedText": [{"lang": "en", "_content": "Date and time when the adverse event resolved."}]}, "Question": {"TranslatedText": [{"lang": "en", "_content": "End Date and Time"}]}, "Alias": [{"Context": "CDASH", "Name": "AEENDTC"}, {"Context": "CDASH/SDTM", "Name": "AEENDTC"}]}, {"DataType": "text", "Length": 1, "Name": "Ongoing?", "OID": "ODM.IT.AE.AEONGO", "Description": {"TranslatedText": [{"lang": "en", "_content": "Indicates AE is ongoing when no End Date is provided."}]}, "Question": {"TranslatedText": [{"lang": "en", "_content": "Ongoing?"}]}, "CodeListRef": {"CodeListOID": "ODM.CL.NY_SUB_Y_N"}, "Alias": [{"Context": "CDASH", "Name": "AEONGO"}]}, {"DataType": "text", "Length": 8, "Name": "Severity", "OID": "ODM.IT.AE.AESEV", "Description": {"TranslatedText": [{"lang": "en", "_content": "Description of the severity of the adverse event."}]}, "Question": {"TranslatedText": [{"lang": "en", "_content": "Severity"}]}, "CodeListRef": {"CodeListOID": "ODM.CL.AESEV"}, "Alias": [{"Context": "CDASH", "Name": "AESEV"}, {"Context": "CDASH/SDTM", "Name": "AESEV"}]}, {"DataType": "text", "Length": 1, "Name": "Serious", "OID": "ODM.IT.AE.AESER", "Description": {"TranslatedText": [{"lang": "en", "_content": "Indicates whether or not the adverse event is determined to be \u201cserious\u201d based on what is defined in the protocol."}]}, "Question": {"TranslatedText": [{"lang": "en", "_content": "Serious"}]}, "CodeListRef": {"CodeListOID": "ODM.CL.NY_SUB_Y_N"}, "Alias": [{"Context": "CDASH", "Name": "AESER"}, {"Context": "CDASH/SDTM", "Name": "AESER"}]}, {"DataType": "text", "Length": 999, "Name": "Relationship to Study Treatment", "OID": "ODM.IT.AE.AEREL", "Description": {"TranslatedText": [{"lang": "en", "_content": "Indication of whether the study treatment had a causal effect on the adverse event, as reported by the clinician/investigator."}]}, "Question": {"TranslatedText": [{"lang": "en", "_content": "Relationship to Study Treatment"}]}, "CodeListRef": {"CodeListOID": "ODM.CL.AEREL"}, "Alias": [{"Context": "CDASH", "Name": "AEREL"}, {"Context": "CDASH/SDTM", "Name": "AEREL"}]}, {"DataType": "text", "Length": 999, "Name": "Action Taken with Study Treatment", "OID": "ODM.IT.AE.AEACN", "Description": {"TranslatedText": [{"lang": "en", "_content": "Changes made to the study treatment in response to the adverse event."}]}, "Question": {"TranslatedText": [{"lang": "en", "_content": "Action Taken with Study Treatment"}]}, "CodeListRef": {"CodeListOID": "ODM.CL.ACN"}, "Alias": [{"Context": "CDASH", "Name": "AEACN"}, {"Context": "CDASH/SDTM", "Name": "AEACN"}]}, {"DataType": "integer", "Name": "Birth Year", "OID": "ODM.IT.DM.BRTHYR", "Description": {"TranslatedText": [{"lang": "en", "_content": "Year of the subjects birth."}]}, "Question": {"TranslatedText": [{"lang": "en", "_content": "Birth Year"}]}, "Alias": [{"Context": "CDASH", "Name": "BRTHYR"}, {"Context": "SDTM", "Name": "BRTHDTC"}]}, {"DataType": "integer", "Name": "Birth Month", "OID": "ODM.IT.DM.BRTHMO", "Description": {"TranslatedText": [{"lang": "en", "_content": "Text value for the month of the subjects birth."}]}, "Question": {"TranslatedText": [{"lang": "en", "_content": "Birth Month"}]}, "Alias": [{"Context": "CDASH", "Name": "BRTHMO"}, {"Context": "SDTM", "Name": "BRTHDTC"}]}, {"DataType": "integer", "Name": "Birth Day", "OID": "ODM.IT.DM.BRTHDY", "Description": {"TranslatedText": [{"lang": "en", "_content": "Numeric day of the month of the subjects birth."}]}, "Question": {"TranslatedText": [{"lang": "en", "_content": "Birth Day"}]}, "Alias": [{"Context": "CDASH", "Name": "BRTHDY"}, {"Context": "SDTM", "Name": "BRTHDTC"}]}, {"DataType": "text", "Length": 2, "Name": "Sex", "OID": "ODM.IT.DM.SEX", "Description": {"TranslatedText": [{"lang": "en", "_content": "The assemblage of physical properties or qualities by which male is distinguished from female; the physical difference between male and female; the distinguishing peculiarity of male or female."}]}, "Question": {"TranslatedText": [{"lang": "en", "_content": "Sex"}]}, "CodeListRef": {"CodeListOID": "CL.SEX"}, "Alias": [{"Context": "CDASH", "Name": "SEX"}, {"Context": "SDTM", "Name": "SEX"}]}, {"DataType": "text", "Length": 999, "Name": "Ethnicity", "OID": "ODM.IT.DM.ETHNIC", "Description": {"TranslatedText": [{"lang": "en", "_content": "A social group characterized by a distinctive social and cultural tradition maintained from generation to generation, a common history and origin and a sense of identification with the group; members of the group have distinctive features in their way of life, shared experiences and often a common genetic heritage; these features may be reflected in their experience of health and disease."}]}, "Question": {"TranslatedText": [{"lang": "en", "_content": "Ethnicity"}]}, "CodeListRef": {"CodeListOID": "CL.ETHNIC.SUBSET.ETHNIC"}, "Alias": [{"Context": "CDASH", "Name": "ETHNIC"}, {"Context": "SDTM", "Name": "ETHNIC"}]}, {"DataType": "text", "Length": 999, "Name": "Race", "OID": "ODM.IT.DM.RACE", "Description": {"TranslatedText": [{"lang": "en", "_content": "An arbitrary classification based on physical characteristics; a group of persons related by common descent or heredity."}]}, "Question": {"TranslatedText": [{"lang": "en", "_content": "Race"}]}, "CodeListRef": {"CodeListOID": "CL.RACE"}, "Alias": [{"Context": "CDASH", "Name": "RACE"}, {"Context": "SDTM", "Name": "RACE"}]}, {"DataType": "boolean", "Name": "SIOUX", "OID": "ODM.IT.DM.RACE.SIOUX", "Description": {"TranslatedText": [{"lang": "en", "_content": "American Indian or Alaska Native: SIOUX."}]}, "Question": {"TranslatedText": [{"lang": "en", "_content": "American Indian or Alaska Native: SIOUX"}]}, "Alias": [{"Context": "CDASH", "Name": "RACE.SIOUX"}, {"Context": "CDASH/SDTM", "Name": "SUPPDM.QNAM"}]}, {"DataType": "boolean", "Name": "APACHE", "OID": "ODM.IT.DM.RACE.APACHE", "Description": {"TranslatedText": [{"lang": "en", "_content": "American Indian or Alaska Native: APACHE."}]}, "Question": {"TranslatedText": [{"lang": "en", "_content": "American Indian or Alaska Native: APACHE"}]}, "Alias": [{"Context": "CDASH", "Name": "RACE.APACHE"}, {"Context": "CDASH/SDTM", "Name": "SUPPDM.QNAM"}]}, {"DataType": "boolean", "Name": "CHEROKEE", "OID": "ODM.IT.DM.RACE.CHEROKEE", "Description": {"TranslatedText": [{"lang": "en", "_content": "American Indian or Alaska Native: CHEROKEE."}]}, "Question": {"TranslatedText": [{"lang": "en", "_content": "American Indian or Alaska Native: CHEROKEE"}]}, "Alias": [{"Context": "CDASH", "Name": "RACE.CHEROKEE"}, {"Context": "CDASH/SDTM", "Name": "SUPPDM.QNAM"}]}, {"DataType": "boolean", "Name": "Native Hawaiian or Other Pacific Islander", "OID": "ODM.IT.DM.RACE.HAWAIIAN", "Description": {"TranslatedText": [{"lang": "en", "_content": "An arbitrary classification based on physical characteristics; a group of persons related by common descent or heredity."}]}, "Question": {"TranslatedText": [{"lang": "en", "_content": "Native Hawaiian or Other Pacific Islander"}]}, "Alias": [{"Context": "CDASH", "Name": "RACE.NATIVE_HAWAIIAN_OR_OTHER_PACIFIC_ISLANDER"}, {"Context": "CDASH/SDTM", "Name": "SUPPDM.QNAM"}]}, {"DataType": "boolean", "Name": "White", "OID": "ODM.IT.DM.RACE.WHITE", "Description": {"TranslatedText": [{"lang": "en", "_content": "An arbitrary classification based on physical characteristics; a group of persons related by common descent or heredity."}]}, "Question": {"TranslatedText": [{"lang": "en", "_content": "White"}]}, "Alias": [{"Context": "CDASH", "Name": "RACE.WHITE"}, {"Context": "CDASH/SDTM", "Name": "SUPPDM.QNAM"}]}, {"DataType": "text", "Length": 75, "Name": "Specify Other", "OID": "ODM.IT.DM.RACEOTH", "Description": {"TranslatedText": [{"lang": "en", "_content": "A free-text field to be used when none of the pre-printed values for RACE are applicable or if another, unprinted selection needs to be added to those pre-printed values."}]}, "Question": {"TranslatedText": [{"lang": "en", "_content": "Specify Other"}]}, "Alias": [{"Context": "CDASH", "Name": "RACEOTH"}, {"Context": "CDASH/SDTM", "Name": "SUPPDM.QNAM"}]}, {"DataType": "text", "Length": 999, "Name": "Vital signs collected?", "OID": "ODM.IT.VS.VSPERF", "Description": {"TranslatedText": [{"lang": "en", "_content": "General prompt question regarding whether or not any VS were collected during the study. This provides verification that all other fields on the CRF were deliberately left blank."}]}, "Question": {"TranslatedText": [{"lang": "en", "_content": "Vital signs collected?"}]}, "CodeListRef": {"CodeListOID": "ODM.CL.NY_SUB_Y_N"}, "Alias": [{"Context": "CDASH", "Name": "VSPERF"}]}, {"DataType": "partialDate", "Name": "Date", "OID": "ODM.IT.VS.VSDAT", "Description": {"TranslatedText": [{"lang": "en", "_content": "Date of measurements"}]}, "Question": {"TranslatedText": [{"lang": "en", "_content": "Date"}]}, "Alias": [{"Context": "CDASH", "Name": "VSDAT"}]}, {"DataType": "partialTime", "Name": "Time", "OID": "ODM.IT.VS.VSTIM", "Description": {"TranslatedText": [{"lang": "en", "_content": "Time of measurements."}]}, "Question": {"TranslatedText": [{"lang": "en", "_content": "Time"}]}, "Alias": [{"Context": "CDASH", "Name": "VSTIM"}]}, {"DataType": "partialDatetime", "Name": "Date and Time", "OID": "ODM.IT.VS.VSDTC", "Description": {"TranslatedText": [{"lang": "en", "_content": "Date and time of measurements."}]}, "Question": {"TranslatedText": [{"lang": "en", "_content": "Date and Time"}]}, "Alias": [{"Context": "CDASH", "Name": "VSDTC"}, {"Context": "CDASH/SDTM", "Name": "VSDTC"}]}, {"DataType": "text", "Length": 999, "Name": "ID", "OID": "ODM.IT.VS.VSSPID", "Description": {"TranslatedText": [{"lang": "en", "_content": "A sponsor-defined identifier which can be used for pre-printed numbers on the CRF."}]}, "Question": {"TranslatedText": [{"lang": "en", "_content": "ID"}]}, "Alias": [{"Context": "CDASH", "Name": "VSSPID"}, {"Context": "CDASH/SDTM", "Name": "VSSPID"}]}, {"DataType": "partialDatetime", "Name": "Planned Time Point", "OID": "ODM.IT.VS.VSTPT", "Description": {"TranslatedText": [{"lang": "en", "_content": "Text description of time when measurement should be taken"}]}, "Question": {"TranslatedText": [{"lang": "en", "_content": "Planned Time Point"}]}, "Alias": [{"Context": "CDASH", "Name": "VSTPT"}, {"Context": "CDASH/SDTM", "Name": "VSTPT"}]}, {"DataType": "text", "Length": 999, "Name": "Clinically Significant", "OID": "ODM.IT.VS.VSCLSIG", "Description": {"TranslatedText": [{"lang": "en", "_content": "Whether vital sign result was clinically significant."}]}, "Question": {"TranslatedText": [{"lang": "en", "_content": "Clinically Significant"}]}, "CodeListRef": {"CodeListOID": "ODM.CL.NY_SUB_Y_N"}, "Alias": [{"Context": "CDASH", "Name": "VSCLSIG"}, {"Context": "CDASH/SDTM", "Name": "SUPPVS.QNAM"}]}, {"DataType": "text", "Length": 999, "Name": "Location", "OID": "ODM.IT.VS.VSLOC", "Description": {"TranslatedText": [{"lang": "en", "_content": "Location relevant to the collection of Vital Signs measurement. Example: LEFT ARM for blood pressure."}]}, "Question": {"TranslatedText": [{"lang": "en", "_content": "Location"}]}, "CodeListRef": {"CodeListOID": "ODM.CL.LOC.SUBSET.VSLOC"}, "Alias": [{"Context": "CDASH", "Name": "VSLOC"}, {"Context": "CDASH/SDTM", "Name": "VSLOC"}]}, {"DataType": "text", "Length": 999, "Name": "Position", "OID": "ODM.IT.VS.VSPOS", "Description": {"TranslatedText": [{"lang": "en", "_content": "Position of the subject during a measurement or examination."}]}, "Question": {"TranslatedText": [{"lang": "en", "_content": "Position"}]}, "CodeListRef": {"CodeListOID": "ODM.CL.VSPOSITION"}, "Alias": [{"Context": "CDASH", "Name": "VSPOS"}, {"Context": "CDASH/SDTM", "Name": "VSPOS"}]}, {"DataType": "float", "Name": "Height", "OID": "ODM.IT.VS.HEIGHT.VSORRES", "Description": {"TranslatedText": [{"lang": "en", "_content": "Result of the vital signs measurement as originally received or collected."}]}, "Question": {"TranslatedText": [{"lang": "en", "_content": "Height"}]}, "Alias": [{"Context": "CDASH", "Name": "HEIGHT.VSORRES"}, {"Context": "CDASH/SDTM", "Name": "VSORRES+VSORRESU"}]}, {"DataType": "text", "Name": "Height Units", "OID": "ODM.IT.VS.HEIGHT.VSORRESU", "Description": {"TranslatedText": [{"lang": "en", "_content": "Units for the vital signs measurement as originally received or collected."}]}, "Question": {"TranslatedText": [{"lang": "en", "_content": "Height Units"}]}, "CodeListRef": {"CodeListOID": "ODM.CL.VSRESU"}, "Alias": [{"Context": "CDASH", "Name": "HEIGHT.VSORRES"}, {"Context": "CDASH/SDTM", "Name": "VSORRES+VSORRESU"}]}, {"DataType": "float", "Name": "Weight", "OID": "ODM.IT.VS.WEIGHT.VSORRES", "Description": {"TranslatedText": [{"lang": "en", "_content": "Result of the vital signs measurement as originally received or collected."}]}, "Question": {"TranslatedText": [{"lang": "en", "_content": "Weight"}]}, "Alias": [{"Context": "CDASH", "Name": "WEIGHT.VSORRES"}, {"Context": "CDASH/SDTM", "Name": "VSORRES+VSORRESU"}]}, {"DataType": "text", "Name": "Weight Units", "OID": "ODM.IT.VS.WEIGHT.VSORRESU", "Description": {"TranslatedText": [{"lang": "en", "_content": "Units for the vital signs measurement as originally received or collected."}]}, "Question": {"TranslatedText": [{"lang": "en", "_content": "Weight Units"}]}, "CodeListRef": {"CodeListOID": "ODM.CL.VSRESU"}, "Alias": [{"Context": "CDASH", "Name": "WEIGHT.VSORRES"}, {"Context": "CDASH/SDTM", "Name": "VSORRES+VSORRESU"}]}, {"DataType": "float", "Name": "Systolic", "OID": "ODM.IT.VS.BP.SYSBP.VSORRES", "Description": {"TranslatedText": [{"lang": "en", "_content": "Result of the vital signs measurement as originally received or collected."}]}, "Question": {"TranslatedText": [{"lang": "en", "_content": "Systolic"}]}, "Alias": [{"Context": "CDASH", "Name": "BP.SYSBP.VSORRES"}, {"Context": "CDASH/SDTM", "Name": "VSORRES+VSORRESU"}]}, {"DataType": "float", "Name": "Diastolic", "OID": "ODM.IT.VS.BP.DIABP.VSORRES", "Description": {"TranslatedText": [{"lang": "en", "_content": "Result of the vital signs measurement as originally received or collected."}]}, "Question": {"TranslatedText": [{"lang": "en", "_content": "Diastolic"}]}, "Alias": [{"Context": "CDASH", "Name": "BP.DIABP.VSORRES"}, {"Context": "CDASH/SDTM", "Name": "VSORRES+VSORRESU"}]}, {"DataType": "text", "Name": "BP Units", "OID": "ODM.IT.VS.BP.VSORRESU", "Description": {"TranslatedText": [{"lang": "en", "_content": "Units for the vital signs measurement as originally received or collected."}]}, "Question": {"TranslatedText": [{"lang": "en", "_content": "Blood Pressure Units"}]}, "CodeListRef": {"CodeListOID": "ODM.CL.VSRESU"}, "Alias": [{"Context": "CDASH", "Name": "BP.VSORRES"}, {"Context": "CDASH/SDTM", "Name": "VSORRES+VSORRESU"}]}, {"DataType": "text", "Length": 999, "Name": "BP Location", "OID": "ODM.IT.VS.BP.VSLOC", "Description": {"TranslatedText": [{"lang": "en", "_content": "Location relevant to the collection of Vital Signs measurement. Example: LEFT ARM for blood pressure."}]}, "Question": {"TranslatedText": [{"lang": "en", "_content": "BP Location"}]}, "CodeListRef": {"CodeListOID": "ODM.CL.LOC_BP"}, "Alias": [{"Context": "CDASH", "Name": "BP.VSLOC"}, {"Context": "CDASH/SDTM", "Name": "VSLOC"}]}, {"DataType": "text", "Length": 999, "Name": "BP Position", "OID": "ODM.IT.VS.BP.VSPOS", "Description": {"TranslatedText": [{"lang": "en", "_content": "Position of the subject during a measurement or examination."}]}, "Question": {"TranslatedText": [{"lang": "en", "_content": "BP Position"}]}, "CodeListRef": {"CodeListOID": "ODM.CL.VSPOSITION"}, "Alias": [{"Context": "CDASH", "Name": "BP.VSPOS"}, {"Context": "CDASH/SDTM", "Name": "VSPOS"}]}, {"DataType": "float", "Name": "Pulse", "OID": "ODM.IT.VS.PULSE.VSORRES", "Description": {"TranslatedText": [{"lang": "en", "_content": "Result of the vital signs measurement as originally received or collected."}]}, "Question": {"TranslatedText": [{"lang": "en", "_content": "Pulse"}]}, "Alias": [{"Context": "CDASH", "Name": "PULSE.VSORRES"}, {"Context": "CDASH/SDTM", "Name": "VSORRES+VSORRESU"}]}, {"DataType": "text", "Name": "Pulse Units", "OID": "ODM.IT.VS.PULSE.VSORRESU", "Description": {"TranslatedText": [{"lang": "en", "_content": "Units for the vital signs measurement as originally received or collected."}]}, "Question": {"TranslatedText": [{"lang": "en", "_content": "Pulse Units"}]}, "CodeListRef": {"CodeListOID": "ODM.CL.VSRESU"}, "Alias": [{"Context": "CDASH", "Name": "PULSE.VSORRES"}, {"Context": "CDASH/SDTM", "Name": "VSORRES+VSORRESU"}]}, {"DataType": "text", "Length": 999, "Name": "Pulse Location", "OID": "ODM.IT.VS.PULSE.VSLOC", "Description": {"TranslatedText": [{"lang": "en", "_content": "Location relevant to the collection of Vital Signs measurement. Example: LEFT ARM for blood pressure."}]}, "Question": {"TranslatedText": [{"lang": "en", "_content": "Pulse Location"}]}, "CodeListRef": {"CodeListOID": "ODM.CL.LOC.SUBSET.PULSE.VSLOC"}, "Alias": [{"Context": "CDASH", "Name": "PULSE.VSLOC"}, {"Context": "CDASH/SDTM", "Name": "VSLOC"}]}, {"DataType": "text", "Length": 999, "Name": "Pulse Position", "OID": "ODM.IT.VS.PULSE.VSPOS", "Description": {"TranslatedText": [{"lang": "en", "_content": "Position of the subject during a measurement or examination."}]}, "Question": {"TranslatedText": [{"lang": "en", "_content": "Pulse Position"}]}, "CodeListRef": {"CodeListOID": "ODM.CL.VSPOSITION"}, "Alias": [{"Context": "CDASH", "Name": "PULSE.VSPOS"}, {"Context": "CDASH/SDTM", "Name": "VSPOS"}]}, {"DataType": "float", "Name": "Temperature", "OID": "ODM.IT.VS.TEMP.VSORRES", "Description": {"TranslatedText": [{"lang": "en", "_content": "Result of the vital signs measurement as originally received or collected."}]}, "Question": {"TranslatedText": [{"lang": "en", "_content": "Temperature"}]}, "Alias": [{"Context": "CDASH", "Name": "TEMP.VSORRES"}, {"Context": "CDASH/SDTM", "Name": "VSORRES+VSORRESU"}]}, {"DataType": "text", "Name": "Temperature Units", "OID": "ODM.IT.VS.TEMP.VSORRESU", "Description": {"TranslatedText": [{"lang": "en", "_content": "Units for the vital signs measurement as originally received or collected."}]}, "Question": {"TranslatedText": [{"lang": "en", "_content": "Temperature Units"}]}, "CodeListRef": {"CodeListOID": "ODM.CL.VSRESU"}, "Alias": [{"Context": "CDASH", "Name": "TEMP.VSORRES"}, {"Context": "CDASH/SDTM", "Name": "VSORRES+VSORRESU"}]}, {"DataType": "text", "Length": 999, "Name": "Temperature Location", "OID": "ODM.IT.VS.TEMP.VSLOC", "Description": {"TranslatedText": [{"lang": "en", "_content": "Location relevant to the collection of Vital Signs measurement. Example: LEFT ARM for blood pressure."}]}, "Question": {"TranslatedText": [{"lang": "en", "_content": "Temperature Location"}]}, "CodeListRef": {"CodeListOID": "ODM.CL.LOC.SUBSET.TEMP.VSLOC"}, "Alias": [{"Context": "CDASH", "Name": "TEMP.VSLOC"}, {"Context": "CDASH/SDTM", "Name": "VSLOC"}]}, {"DataType": "text", "Length": 999, "Name": "Frame Size collected?", "OID": "ODM.IT.VS.FRMSIZE.VSPERF", "Description": {"TranslatedText": [{"lang": "en", "_content": "General prompt question regarding whether or not any VS were collected during the study. This provides verification that all other fields on the CRF were deliberately left blank."}]}, "Question": {"TranslatedText": [{"lang": "en", "_content": "Frame Size collected?"}]}, "CodeListRef": {"CodeListOID": "ODM.CL.NY_SUB_Y_N"}, "Alias": [{"Context": "CDASH", "Name": "FRMSIZE.VSPERF"}]}, {"DataType": "text", "Length": 999, "Name": "Frame Size", "OID": "ODM.IT.VS.FRMSIZE.VSORRES", "Description": {"TranslatedText": [{"lang": "en", "_content": "Result of the vital signs measurement as originally received or collected."}]}, "Question": {"TranslatedText": [{"lang": "en", "_content": "Frame Size"}]}, "CodeListRef": {"CodeListOID": "ODM.CL.FRMSIZE"}, "Alias": [{"Context": "CDASH", "Name": "FRMSIZE.VSORRES"}, {"Context": "CDASH/SDTM", "Name": "VSORRES+VSORRESU"}]}], "CodeList": [{"DataType": "text", "Name": "Severity/Intensity Scale for Adverse Events", "OID": "ODM.CL.AESEV", "CodeListItem": [{"CodedValue": "MILD", "Decode": {"TranslatedText": [{"lang": "en", "_content": "MILD"}]}}, {"CodedValue": "MODERATE", "Decode": {"TranslatedText": [{"lang": "en", "_content": "MODERATE"}]}}, {"CodedValue": "SEVERE", "Decode": {"TranslatedText": [{"lang": "en", "_content": "SEVERE"}]}}]}, {"DataType": "text", "Name": "Relationship to Study Treatment", "OID": "ODM.CL.AEREL", "CodeListItem": [{"CodedValue": "NOT RELATED", "Decode": {"TranslatedText": [{"lang": "en", "_content": "NOT RELATED"}]}}, {"CodedValue": "UNLIKELY", "Decode": {"TranslatedText": [{"lang": "en", "_content": "UNLIKELY RELATED"}]}}, {"CodedValue": "POSSIBLY", "Decode": {"TranslatedText": [{"lang": "en", "_content": "POSSIBLY RELATED"}]}}, {"CodedValue": "RELATED", "Decode": {"TranslatedText": [{"lang": "en", "_content": "RELATED"}]}}]}, {"DataType": "text", "Name": "Action Taken with Study Treatment", "OID": "ODM.CL.ACN", "CodeListItem": [{"CodedValue": "DOSE INCREASED", "Decode": {"TranslatedText": [{"lang": "en", "_content": "DOSE INCREASED"}]}}, {"CodedValue": "DOSE NOT CHANGED", "Decode": {"TranslatedText": [{"lang": "en", "_content": "DOSE NOT CHANGED"}]}}, {"CodedValue": "DOSE REDUCED", "Decode": {"TranslatedText": [{"lang": "en", "_content": "DOSE REDUCED"}]}}, {"CodedValue": "DRUG INTERRUPTED", "Decode": {"TranslatedText": [{"lang": "en", "_content": "DRUG INTERRUPTED"}]}}, {"CodedValue": "DRUG WITHDRAWN", "Decode": {"TranslatedText": [{"lang": "en", "_content": "DRUG WITHDRAWN"}]}}, {"CodedValue": "NOT APPLICABLE", "Decode": {"TranslatedText": [{"lang": "en", "_content": "NOT APPLICABLE"}]}}, {"CodedValue": "UNKNOWN", "Decode": {"TranslatedText": [{"lang": "en", "_content": "UNKNOWN"}]}}]}, {"DataType": "text", "Name": "Outcome of Event", "OID": "ODM.CL.OUT", "CodeListItem": [{"CodedValue": "FATAL", "Decode": {"TranslatedText": [{"lang": "en", "_content": "FATAL"}]}}, {"CodedValue": "NOT RECOVERED/NOT RESOLVED", "Decode": {"TranslatedText": [{"lang": "en", "_content": "NOT RECOVERED/NOT RESOLVED"}]}}, {"CodedValue": "RECOVERED/RESOLVED", "Decode": {"TranslatedText": [{"lang": "en", "_content": "RECOVERED/RESOLVED"}]}}, {"CodedValue": "RECOVERED/RESOLVED WITH SEQUELAE", "Decode": {"TranslatedText": [{"lang": "en", "_content": "RECOVERED/RESOLVED WITH SEQUELAE"}]}}, {"CodedValue": "RECOVERING/RESOLVING", "Decode": {"TranslatedText": [{"lang": "en", "_content": "RECOVERING/RESOLVING"}]}}, {"CodedValue": "UNKNOWN", "Decode": {"TranslatedText": [{"lang": "en", "_content": "UNKNOWN"}]}}]}, {"DataType": "text", "Name": "Sex", "OID": "ODM.CL.SEX", "CodeListItem": [{"CodedValue": "F", "Decode": {"TranslatedText": [{"lang": "en", "_content": "FEMALE"}]}}, {"CodedValue": "M", "Decode": {"TranslatedText": [{"lang": "en", "_content": "MALE"}]}}]}, {"DataType": "text", "Name": "Ethnic Group", "OID": "ODM.CL.ETHNIC.SUBSET.ETHNIC", "CodeListItem": [{"CodedValue": "NOT HISPANIC OR LATINO", "Decode": {"TranslatedText": [{"lang": "en", "_content": "NOT HISPANIC OR LATINO"}]}}, {"CodedValue": "HISPANIC OR LATINO", "Decode": {"TranslatedText": [{"lang": "en", "_content": "HISPANIC OR LATINO"}]}}, {"CodedValue": "NOT REPORTED", "Decode": {"TranslatedText": [{"lang": "en", "_content": "NOT REPORTED"}]}}, {"CodedValue": "UNKNOWN", "Decode": {"TranslatedText": [{"lang": "en", "_content": "UNKNOWN"}]}}]}, {"DataType": "text", "Name": "Race", "OID": "ODM.CL.RACE", "CodeListItem": [{"CodedValue": "BLACK OR AFRICAN AMERICAN", "Decode": {"TranslatedText": [{"lang": "en", "_content": "BLACK OR AFRICAN AMERICAN"}]}}, {"CodedValue": "AMERICAN INDIAN OR ALASKA NATIVE", "Decode": {"TranslatedText": [{"lang": "en", "_content": "AMERICAN INDIAN OR ALASKA NATIVE"}]}}, {"CodedValue": "ASIAN", "Decode": {"TranslatedText": [{"lang": "en", "_content": "ASIAN"}]}}, {"CodedValue": "NATIVE HAWAIIAN OR OTHER PACIFIC ISLANDER", "Decode": {"TranslatedText": [{"lang": "en", "_content": "NATIVE HAWAIIAN OR OTHER PACIFIC ISLANDER"}]}}, {"CodedValue": "WHITE", "Decode": {"TranslatedText": [{"lang": "en", "_content": "WHITE"}]}}, {"CodedValue": "OTHER", "Decode": {"TranslatedText": [{"lang": "en", "_content": "OTHER"}]}}]}, {"DataType": "text", "Name": "No Yes Response", "OID": "ODM.CL.NY_SUB_Y_N", "CodeListItem": [{"CodedValue": "N", "Decode": {"TranslatedText": [{"lang": "en", "_content": "NO"}]}}, {"CodedValue": "Y", "Decode": {"TranslatedText": [{"lang": "en", "_content": "YES"}]}}]}, {"DataType": "text", "Name": "Vital Signs Test Name", "OID": "ODM.CL.VSTEST.SUBSET.VSTEST", "CodeListItem": [{"CodedValue": "Diastolic Blood Pressure", "Decode": {"TranslatedText": [{"lang": "en", "_content": "DIABP"}]}}, {"CodedValue": "Body Frame Size", "Decode": {"TranslatedText": [{"lang": "en", "_content": "FRMSIZE"}]}}, {"CodedValue": "Height", "Decode": {"TranslatedText": [{"lang": "en", "_content": "HEIGHT"}]}}, {"CodedValue": "Pulse Rate", "Decode": {"TranslatedText": [{"lang": "en", "_content": "PULSE"}]}}, {"CodedValue": "Systolic Blood Pressure", "Decode": {"TranslatedText": [{"lang": "en", "_content": "SYSBP"}]}}, {"CodedValue": "Temperature", "Decode": {"TranslatedText": [{"lang": "en", "_content": "TEMP"}]}}, {"CodedValue": "Weight", "Decode": {"TranslatedText": [{"lang": "en", "_content": "WEIGHT"}]}}]}, {"DataType": "text", "Name": "Units for Vital Signs Results", "OID": "ODM.CL.VSRESU", "CodeListItem": [{"CodedValue": "%", "Decode": {"TranslatedText": [{"lang": "en", "_content": "%"}]}}, {"CodedValue": "BEATS/MIN", "Decode": {"TranslatedText": [{"lang": "en", "_content": "BEATS/MIN"}]}}, {"CodedValue": "BREATHS/MIN", "Decode": {"TranslatedText": [{"lang": "en", "_content": "BREATHS/MIN"}]}}, {"CodedValue": "C", "Decode": {"TranslatedText": [{"lang": "en", "_content": "C"}]}}, {"CodedValue": "cm", "Decode": {"TranslatedText": [{"lang": "en", "_content": "cm"}]}}, {"CodedValue": "F", "Decode": {"TranslatedText": [{"lang": "en", "_content": "F"}]}}, {"CodedValue": "g", "Decode": {"TranslatedText": [{"lang": "en", "_content": "g"}]}}, {"CodedValue": "IN", "Decode": {"TranslatedText": [{"lang": "en", "_content": "IN"}]}}, {"CodedValue": "kg", "Decode": {"TranslatedText": [{"lang": "en", "_content": "kg"}]}}, {"CodedValue": "kg/m2", "Decode": {"TranslatedText": [{"lang": "en", "_content": "kg/m2"}]}}, {"CodedValue": "LB", "Decode": {"TranslatedText": [{"lang": "en", "_content": "LB"}]}}, {"CodedValue": "m2", "Decode": {"TranslatedText": [{"lang": "en", "_content": "m2"}]}}, {"CodedValue": "mmHg", "Decode": {"TranslatedText": [{"lang": "en", "_content": "mmHg"}]}}, {"CodedValue": "ohm", "Decode": {"TranslatedText": [{"lang": "en", "_content": "ohm"}]}}]}, {"DataType": "text", "Name": "Anatomical Location", "OID": "ODM.CL.LOC.SUBSET.VSLOC", "CodeListItem": [{"CodedValue": "RADIAL ARTERY", "Decode": {"TranslatedText": [{"lang": "en", "_content": "RADIAL ARTERY"}]}}, {"CodedValue": "CAROTID ARTERY", "Decode": {"TranslatedText": [{"lang": "en", "_content": "CAROTID ARTERY"}]}}, {"CodedValue": "BRACHIAL ARTERY", "Decode": {"TranslatedText": [{"lang": "en", "_content": "BRACHIAL ARTERY"}]}}, {"CodedValue": "AXILLA", "Decode": {"TranslatedText": [{"lang": "en", "_content": "AXILLA"}]}}, {"CodedValue": "EAR", "Decode": {"TranslatedText": [{"lang": "en", "_content": "EAR"}]}}]}, {"DataType": "text", "Name": "Vital Sign Positions", "OID": "ODM.CL.VSPOSITION", "CodeListItem": [{"CodedValue": "SITTING", "Decode": {"TranslatedText": [{"lang": "en", "_content": "SITTING"}]}}, {"CodedValue": "PRONE", "Decode": {"TranslatedText": [{"lang": "en", "_content": "PRONE"}]}}, {"CodedValue": "STANDING", "Decode": {"TranslatedText": [{"lang": "en", "_content": "STANDING"}]}}, {"CodedValue": "SUPINE", "Decode": {"TranslatedText": [{"lang": "en", "_content": "SUPINE"}]}}]}, {"DataType": "text", "Name": "Anatomical Location", "OID": "ODM.CL.LOC_BP", "CodeListItem": [{"CodedValue": "BRACHIAL ARTERY", "Decode": {"TranslatedText": [{"lang": "en", "_content": "BRACHIAL ARTERY"}]}}, {"CodedValue": "ANKLE", "Decode": {"TranslatedText": [{"lang": "en", "_content": "ANKLE"}]}}]}, {"DataType": "text", "Name": "Anatomical Location", "OID": "ODM.CL.LOC.SUBSET.PULSE.VSLOC", "CodeListItem": [{"CodedValue": "RADIAL ARTERY", "Decode": {"TranslatedText": [{"lang": "en", "_content": "RADIAL ARTERY"}]}}, {"CodedValue": "CAROTID ARTERY", "Decode": {"TranslatedText": [{"lang": "en", "_content": "CAROTID ARTERY"}]}}, {"CodedValue": "BRACHIAL ARTERY", "Decode": {"TranslatedText": [{"lang": "en", "_content": "BRACHIAL ARTERY"}]}}]}, {"DataType": "text", "Name": "Anatomical Location", "OID": "ODM.CL.LOC.SUBSET.TEMP.VSLOC", "CodeListItem": [{"CodedValue": "AXILLA", "Decode": {"TranslatedText": [{"lang": "en", "_content": "AXILLA"}]}}, {"CodedValue": "EAR", "Decode": {"TranslatedText": [{"lang": "en", "_content": "EAR"}]}}]}, {"DataType": "text", "Name": "Vital Sign frame size", "OID": "ODM.CL.FRMSIZE", "CodeListItem": [{"CodedValue": "SMALL", "Decode": {"TranslatedText": [{"lang": "en", "_content": "SMALL"}]}}, {"CodedValue": "MEDIUM", "Decode": {"TranslatedText": [{"lang": "en", "_content": "MEDIUM"}]}}, {"CodedValue": "LARGE", "Decode": {"TranslatedText": [{"lang": "en", "_content": "LARGE"}]}}]}]}]}]}