{"ODMVersion": "1.3.2", "FileOID": "www.cdisc.org.Studycdisc01-Define-XML_2.0.0", "FileType": "Snapshot", "CreationDateTime": "2013-03-03T17:04:44", "Originator": "CDISC XML Technologies Team", "SourceSystem": "MH-System", "SourceSystemVersion": "2.0.1", "Study": {"OID": "cdisc01", "GlobalVariables": {"StudyName": {"_content": "CDISC01"}, "StudyDescription": {"_content": "CDISC Test Study"}, "ProtocolName": {"_content": "CDISC01"}}, "MetaDataVersion": {"OID": "MDV.CDISC01.SDTMIG.3.1.2.SDTM.1.2", "Name": "Study CDISC01, Data Definitions", "Description": "Study CDISC01, Data Definitions", "DefineVersion": "2.0.0", "StandardName": "SDTM-IG", "StandardVersion": "3.1.2", "AnnotatedCRF": {"DocumentRef": {"leafID": "LF.blankcrf"}}, "SupplementalDoc": {"DocumentRef": [{"leafID": "LF.ReviewersGuide"}, {"leafID": "LF.ComplexAlgorithms"}]}, "ValueListDef": [{"OID": "VL.DA.DAORRES", "ItemRef": [{"ItemOID": "IT.DA.DAORRES.DISPAMT", "OrderNumber": 1, "Mandatory": "Yes", "WhereClauseRef": [{"WhereClauseOID": "WC.DA.DATESTCD.DISPAMT"}]}, {"ItemOID": "IT.DA.DAORRES.RETAMT", "OrderNumber": 2, "Mandatory": "No", "WhereClauseRef": [{"WhereClauseOID": "WC.DA.DATESTCD.RETAMT"}]}]}, {"OID": "VL.EG.EGORRES", "ItemRef": [{"ItemOID": "IT.EG.EGORRES.INTP", "OrderNumber": 1, "Mandatory": "No", "WhereClauseRef": [{"WhereClauseOID": "WC.EG.EGTESTCD.INTP"}]}, {"ItemOID": "IT.EG.EGORRES.PRMEAN", "OrderNumber": 2, "Mandatory": "No", "WhereClauseRef": [{"WhereClauseOID": "WC.EG.EGTESTCD.PRMEAN"}]}, {"ItemOID": "IT.EG.EGORRES.QRSDUR", "OrderNumber": 3, "Mandatory": "No", "WhereClauseRef": [{"WhereClauseOID": "WC.EG.EGTESTCD.QRSDUR"}]}, {"ItemOID": "IT.EG.EGORRES.QTMEAN", "OrderNumber": 4, "Mandatory": "No", "WhereClauseRef": [{"WhereClauseOID": "WC.EG.EGTESTCD.QTMEAN"}]}, {"ItemOID": "IT.EG.EGORRES.VRMEAN", "OrderNumber": 5, "Mandatory": "No", "WhereClauseRef": [{"WhereClauseOID": "WC.EG.EGTESTCD.VRMEAN"}]}]}, {"OID": "VL.EG.EGSTRESC", "ItemRef": [{"ItemOID": "IT.EG.EGSTRESC.QTCB", "OrderNumber": 1, "Mandatory": "Yes", "MethodOID": "MT.QTCB", "WhereClauseRef": [{"WhereClauseOID": "WC.EG.EGTESTCD.QTCB"}]}, {"ItemOID": "IT.EG.EGSTRESC.QTCF", "OrderNumber": 2, "Mandatory": "Yes", "MethodOID": "MT.QTCF", "WhereClauseRef": [{"WhereClauseOID": "WC.EG.EGTESTCD.QTCF"}]}]}, {"OID": "VL.IE.IEORRES", "ItemRef": [{"ItemOID": "IT.IE.IEORRES.EXCL01", "OrderNumber": 1, "Mandatory": "No", "WhereClauseRef": [{"WhereClauseOID": "WC.IE.IETESTCD.EXCL01"}]}, {"ItemOID": "IT.IE.IEORRES.EXCL02", "OrderNumber": 2, "Mandatory": "No", "WhereClauseRef": [{"WhereClauseOID": "WC.IE.IETESTCD.EXCL02"}]}, {"ItemOID": "IT.IE.IEORRES.EXCL03", "OrderNumber": 3, "Mandatory": "No", "WhereClauseRef": [{"WhereClauseOID": "WC.IE.IETESTCD.EXCL03"}]}, {"ItemOID": "IT.IE.IEORRES.INCL01", "OrderNumber": 4, "Mandatory": "No", "WhereClauseRef": [{"WhereClauseOID": "WC.IE.IETESTCD.INCL01"}]}, {"ItemOID": "IT.IE.IEORRES.INCL02", "OrderNumber": 5, "Mandatory": "No", "WhereClauseRef": [{"WhereClauseOID": "WC.IE.IETESTCD.INCL02"}]}, {"ItemOID": "IT.IE.IEORRES.INCL03", "OrderNumber": 6, "Mandatory": "No", "WhereClauseRef": [{"WhereClauseOID": "WC.IE.IETESTCD.INCL03"}]}]}, {"OID": "VL.LB.LBORRES", "ItemRef": [{"ItemOID": "IT.LB.LBORRES.BILI.LBCAT.CHEMISTRY.LBSPEC.BLOOD", "OrderNumber": 1, "Mandatory": "No", "WhereClauseRef": [{"WhereClauseOID": "WC.LB.LBTESTCD.BILI.LBCAT.CHEMISTRY.LBSPEC.BLOOD"}]}, {"ItemOID": "IT.LB.LBORRES.BUN.LBCAT.CHEMISTRY.LBSPEC.BLOOD", "OrderNumber": 2, "Mandatory": "No", "WhereClauseRef": [{"WhereClauseOID": "WC.LB.LBTESTCD.BUN.LBCAT.CHEMISTRY.LBSPEC.BLOOD"}]}, {"ItemOID": "IT.LB.LBORRES.GLUC.LBCAT.CHEMISTRY.LBSPEC.BLOOD", "OrderNumber": 3, "Mandatory": "No", "WhereClauseRef": [{"WhereClauseOID": "WC.LB.LBTESTCD.GLUC.LBCAT.CHEMISTRY.LBSPEC.BLOOD"}]}, {"ItemOID": "IT.LB.LBORRES.GLUC.LBCAT.URINALYSIS.LBSPEC.URINE.LBMETHOD.DIPSTICK", "OrderNumber": 4, "Mandatory": "No", "WhereClauseRef": [{"WhereClauseOID": "WC.LB.LBTESTCD.GLUC.LBCAT.URINALYSIS.LBSPEC.URINE.LBMETHOD.DIPSTICK"}]}, {"ItemOID": "IT.LB.LBORRES.GLUC.LBCAT.URINALYSIS.LBSPEC.URINE.LBMETHOD.QUANT", "OrderNumber": 5, "Mandatory": "No", "WhereClauseRef": [{"WhereClauseOID": "WC.LB.LBTESTCD.GLUC.LBCAT.URINALYSIS.LBSPEC.URINE.LBMETHOD.QUANT"}]}, {"ItemOID": "IT.LB.LBORRES.HCT.LBCAT.HEMATOLOGY.LBSPEC.BLOOD", "OrderNumber": 6, "Mandatory": "No", "WhereClauseRef": [{"WhereClauseOID": "WC.LB.LBTESTCD.HCT.LBCAT.HEMATOLOGY.LBSPEC.BLOOD"}]}, {"ItemOID": "IT.LB.LBORRES.HGB.LBCAT.HEMATOLOGY.LBSPEC.BLOOD", "OrderNumber": 7, "Mandatory": "No", "WhereClauseRef": [{"WhereClauseOID": "WC.LB.LBTESTCD.HGB.LBCAT.HEMATOLOGY.LBSPEC.BLOOD"}]}, {"ItemOID": "IT.LB.LBORRES.LYM.LBCAT.HEMATOLOGY.LBSPEC.BLOOD", "OrderNumber": 8, "Mandatory": "No", "WhereClauseRef": [{"WhereClauseOID": "WC.LB.LBTESTCD.LYM.LBCAT.HEMATOLOGY.LBSPEC.BLOOD"}]}, {"ItemOID": "IT.LB.LBORRES.OCCBLD.LBCAT.URINALYSIS.LBSPEC.URINE", "OrderNumber": 9, "Mandatory": "No", "WhereClauseRef": [{"WhereClauseOID": "WC.LB.LBTESTCD.OCCBLD.LBCAT.URINALYSIS.LBSPEC.URINE"}]}, {"ItemOID": "IT.LB.LBORRES.PH.LBCAT.URINALYSIS.LBSPEC.URINE", "OrderNumber": 10, "Mandatory": "No", "WhereClauseRef": [{"WhereClauseOID": "WC.LB.LBTESTCD.PH.LBCAT.URINALYSIS.LBSPEC.URINE"}]}, {"ItemOID": "IT.LB.LBORRES.VITB12.LBCAT.CHEMISTRY.LBSPEC.SERUM", "OrderNumber": 11, "Mandatory": "No", "WhereClauseRef": [{"WhereClauseOID": "WC.LB.LBTESTCD.VITB12.LBCAT.CHEMISTRY.LBSPEC.SERUM"}]}, {"ItemOID": "IT.LB.LBORRES.VITB9.LBCAT.CHEMISTRY.LBSPEC.BLOOD", "OrderNumber": 12, "Mandatory": "No", "WhereClauseRef": [{"WhereClauseOID": "WC.LB.LBTESTCD.VITB9.LBCAT.CHEMISTRY.LBSPEC.BLOOD"}]}]}, {"OID": "VL.PE.PEORRES", "ItemRef": [{"ItemOID": "IT.PE.PEORRES.PE01", "OrderNumber": 1, "Mandatory": "Yes", "WhereClauseRef": [{"WhereClauseOID": "WC.PE.PETESTCD.PE01"}]}, {"ItemOID": "IT.PE.PEORRES.PE02", "OrderNumber": 2, "Mandatory": "Yes", "WhereClauseRef": [{"WhereClauseOID": "WC.PE.PETESTCD.PE02"}]}, {"ItemOID": "IT.PE.PEORRES.PE03", "OrderNumber": 3, "Mandatory": "Yes", "WhereClauseRef": [{"WhereClauseOID": "WC.PE.PETESTCD.PE03"}]}, {"ItemOID": "IT.PE.PEORRES.PE04", "OrderNumber": 4, "Mandatory": "Yes", "WhereClauseRef": [{"WhereClauseOID": "WC.PE.PETESTCD.PE04"}]}, {"ItemOID": "IT.PE.PEORRES.PE05", "OrderNumber": 5, "Mandatory": "Yes", "WhereClauseRef": [{"WhereClauseOID": "WC.PE.PETESTCD.PE05"}]}, {"ItemOID": "IT.PE.PEORRES.PE06", "OrderNumber": 6, "Mandatory": "Yes", "WhereClauseRef": [{"WhereClauseOID": "WC.PE.PETESTCD.PE06"}]}, {"ItemOID": "IT.PE.PEORRES.PE07", "OrderNumber": 7, "Mandatory": "Yes", "WhereClauseRef": [{"WhereClauseOID": "WC.PE.PETESTCD.PE07"}]}, {"ItemOID": "IT.PE.PEORRES.PE08", "OrderNumber": 8, "Mandatory": "Yes", "WhereClauseRef": [{"WhereClauseOID": "WC.PE.PETESTCD.PE08"}]}, {"ItemOID": "IT.PE.PEORRES.PE09", "OrderNumber": 9, "Mandatory": "No", "WhereClauseRef": [{"WhereClauseOID": "WC.PE.PETESTCD.PE09"}]}]}, {"OID": "VL.QS.QSORRES", "ItemRef": [{"ItemOID": "IT.QS.QSORRES.CGIGLOB", "OrderNumber": 1, "Mandatory": "No", "WhereClauseRef": [{"WhereClauseOID": "WC.QS.QSTESTCD.CGIGLOB"}]}, {"ItemOID": "IT.QS.QSORRES.CSDD01", "OrderNumber": 2, "Mandatory": "No", "WhereClauseRef": [{"WhereClauseOID": "WC.QS.QSTESTCD.CSDD01"}]}, {"ItemOID": "IT.QS.QSORRES.CSDD02", "OrderNumber": 3, "Mandatory": "No", "WhereClauseRef": [{"WhereClauseOID": "WC.QS.QSTESTCD.CSDD02"}]}, {"ItemOID": "IT.QS.QSORRES.CSDD03", "OrderNumber": 4, "Mandatory": "No", "WhereClauseRef": [{"WhereClauseOID": "WC.QS.QSTESTCD.CSDD03"}]}, {"ItemOID": "IT.QS.QSORRES.CSDD04", "OrderNumber": 5, "Mandatory": "No", "WhereClauseRef": [{"WhereClauseOID": "WC.QS.QSTESTCD.CSDD04"}]}, {"ItemOID": "IT.QS.QSORRES.CSDD05", "OrderNumber": 6, "Mandatory": "No", "WhereClauseRef": [{"WhereClauseOID": "WC.QS.QSTESTCD.CSDD05"}]}, {"ItemOID": "IT.QS.QSORRES.CSDD06", "OrderNumber": 7, "Mandatory": "No", "WhereClauseRef": [{"WhereClauseOID": "WC.QS.QSTESTCD.CSDD06"}]}, {"ItemOID": "IT.QS.QSORRES.CSDD07", "OrderNumber": 8, "Mandatory": "No", "WhereClauseRef": [{"WhereClauseOID": "WC.QS.QSTESTCD.CSDD07"}]}, {"ItemOID": "IT.QS.QSORRES.CSDD08", "OrderNumber": 9, "Mandatory": "No", "WhereClauseRef": [{"WhereClauseOID": "WC.QS.QSTESTCD.CSDD08"}]}, {"ItemOID": "IT.QS.QSORRES.CSDD09", "OrderNumber": 10, "Mandatory": "No", "WhereClauseRef": [{"WhereClauseOID": "WC.QS.QSTESTCD.CSDD09"}]}, {"ItemOID": "IT.QS.QSORRES.CSDD10", "OrderNumber": 11, "Mandatory": "No", "WhereClauseRef": [{"WhereClauseOID": "WC.QS.QSTESTCD.CSDD10"}]}, {"ItemOID": "IT.QS.QSORRES.CSDD11", "OrderNumber": 12, "Mandatory": "No", "WhereClauseRef": [{"WhereClauseOID": "WC.QS.QSTESTCD.CSDD11"}]}, {"ItemOID": "IT.QS.QSORRES.CSDD12", "OrderNumber": 13, "Mandatory": "No", "WhereClauseRef": [{"WhereClauseOID": "WC.QS.QSTESTCD.CSDD12"}]}, {"ItemOID": "IT.QS.QSORRES.CSDD13", "OrderNumber": 14, "Mandatory": "No", "WhereClauseRef": [{"WhereClauseOID": "WC.QS.QSTESTCD.CSDD13"}]}, {"ItemOID": "IT.QS.QSORRES.CSDD14", "OrderNumber": 15, "Mandatory": "No", "WhereClauseRef": [{"WhereClauseOID": "WC.QS.QSTESTCD.CSDD14"}]}, {"ItemOID": "IT.QS.QSORRES.CSDD15", "OrderNumber": 16, "Mandatory": "No", "WhereClauseRef": [{"WhereClauseOID": "WC.QS.QSTESTCD.CSDD15"}]}, {"ItemOID": "IT.QS.QSORRES.CSDD16", "OrderNumber": 17, "Mandatory": "No", "WhereClauseRef": [{"WhereClauseOID": "WC.QS.QSTESTCD.CSDD16"}]}, {"ItemOID": "IT.QS.QSORRES.CSDD17", "OrderNumber": 18, "Mandatory": "No", "WhereClauseRef": [{"WhereClauseOID": "WC.QS.QSTESTCD.CSDD17"}]}, {"ItemOID": "IT.QS.QSORRES.CSDD18", "OrderNumber": 19, "Mandatory": "No", "WhereClauseRef": [{"WhereClauseOID": "WC.QS.QSTESTCD.CSDD18"}]}, {"ItemOID": "IT.QS.QSORRES.CSDD19", "OrderNumber": 20, "Mandatory": "No", "WhereClauseRef": [{"WhereClauseOID": "WC.QS.QSTESTCD.CSDD19"}]}, {"ItemOID": "IT.QS.QSORRES.CSDDTOT", "OrderNumber": 21, "Mandatory": "No", "WhereClauseRef": [{"WhereClauseOID": "WC.QS.QSTESTCD.CSDDTOT"}]}, {"ItemOID": "IT.QS.QSORRES.MMSEA1", "OrderNumber": 22, "Mandatory": "No", "WhereClauseRef": [{"WhereClauseOID": "WC.QS.QSTESTCD.MMSEA1"}]}, {"ItemOID": "IT.QS.QSORRES.MMSEA2", "OrderNumber": 23, "Mandatory": "No", "WhereClauseRef": [{"WhereClauseOID": "WC.QS.QSTESTCD.MMSEA2"}]}, {"ItemOID": "IT.QS.QSORRES.MMSEB", "OrderNumber": 24, "Mandatory": "No", "WhereClauseRef": [{"WhereClauseOID": "WC.QS.QSTESTCD.MMSEB"}]}, {"ItemOID": "IT.QS.QSORRES.MMSEC", "OrderNumber": 25, "Mandatory": "No", "WhereClauseRef": [{"WhereClauseOID": "WC.QS.QSTESTCD.MMSEC"}]}, {"ItemOID": "IT.QS.QSORRES.MMSED", "OrderNumber": 26, "Mandatory": "No", "WhereClauseRef": [{"WhereClauseOID": "WC.QS.QSTESTCD.MMSED"}]}, {"ItemOID": "IT.QS.QSORRES.MMSEET", "OrderNumber": 27, "Mandatory": "No", "WhereClauseRef": [{"WhereClauseOID": "WC.QS.QSTESTCD.MMSEET"}]}, {"ItemOID": "IT.QS.QSORRES.MMSETOT", "OrderNumber": 28, "Mandatory": "No", "WhereClauseRef": [{"WhereClauseOID": "WC.QS.QSTESTCD.MMSETOT"}]}]}, {"OID": "VL.SC.SCORRES", "ItemRef": [{"ItemOID": "IT.SC.SCORRES.EDLEVEL", "OrderNumber": 1, "Mandatory": "No", "WhereClauseRef": [{"WhereClauseOID": "WC.SC.SCTESTCD.EDLEVEL"}]}, {"ItemOID": "IT.SC.SCORRES.MARISTAT", "OrderNumber": 2, "Mandatory": "No", "WhereClauseRef": [{"WhereClauseOID": "WC.SC.SCTESTCD.MARISTAT"}]}, {"ItemOID": "IT.SC.SCORRES.SUBJINIT", "OrderNumber": 3, "Mandatory": "No", "WhereClauseRef": [{"WhereClauseOID": "WC.SC.SCTESTCD.SUBJINIT"}]}]}, {"OID": "VL.SUPPAE.QVAL", "ItemRef": [{"ItemOID": "IT.SUPPAE.QVAL.AETRTEM", "OrderNumber": 1, "Mandatory": "No", "MethodOID": "MT.AETRTEM", "WhereClauseRef": [{"WhereClauseOID": "WC.SUPPAE.QNAM.AETRTEM"}]}, {"ItemOID": "IT.SUPPAE.QVAL.HLGT", "OrderNumber": 2, "Mandatory": "No", "WhereClauseRef": [{"WhereClauseOID": "WC.SUPPAE.QNAM.HLGT"}]}, {"ItemOID": "IT.SUPPAE.QVAL.HLT", "OrderNumber": 3, "Mandatory": "No", "WhereClauseRef": [{"WhereClauseOID": "WC.SUPPAE.QNAM.HLT"}]}, {"ItemOID": "IT.SUPPAE.QVAL.LLT", "OrderNumber": 4, "Mandatory": "No", "WhereClauseRef": [{"WhereClauseOID": "WC.SUPPAE.QNAM.LLT"}]}]}, {"OID": "VL.SUPPCM.QVAL", "ItemRef": [{"ItemOID": "IT.SUPPCM.QVAL.ATC4CODE", "OrderNumber": 1, "Mandatory": "No", "WhereClauseRef": [{"WhereClauseOID": "WC.SUPPCM.QNAM.ATC4CODE"}]}, {"ItemOID": "IT.SUPPCM.QVAL.ATC4TERM", "OrderNumber": 2, "Mandatory": "No", "WhereClauseRef": [{"WhereClauseOID": "WC.SUPPCM.QNAM.ATC4TERM"}]}, {"ItemOID": "IT.SUPPCM.QVAL.CPREFCD", "OrderNumber": 3, "Mandatory": "No", "WhereClauseRef": [{"WhereClauseOID": "WC.SUPPCM.QNAM.CPREFCD"}]}, {"ItemOID": "IT.SUPPCM.QVAL.PDDREAS", "OrderNumber": 4, "Mandatory": "No", "WhereClauseRef": [{"WhereClauseOID": "WC.SUPPCM.QNAM.PDDREAS"}]}, {"ItemOID": "IT.SUPPCM.QVAL.PDRESP", "OrderNumber": 5, "Mandatory": "No", "WhereClauseRef": [{"WhereClauseOID": "WC.SUPPCM.QNAM.PDRESP"}]}]}, {"OID": "VL.SUPPDM.QVAL", "ItemRef": [{"ItemOID": "IT.SUPPDM.QVAL.RACE1", "OrderNumber": 1, "Mandatory": "No", "WhereClauseRef": [{"WhereClauseOID": "WC.SUPPDM.QNAM.RACE1"}]}, {"ItemOID": "IT.SUPPDM.QVAL.RACE2", "OrderNumber": 2, "Mandatory": "No", "WhereClauseRef": [{"WhereClauseOID": "WC.SUPPDM.QNAM.RACE2"}]}, {"ItemOID": "IT.SUPPDM.QVAL.RACE3", "OrderNumber": 3, "Mandatory": "No", "WhereClauseRef": [{"WhereClauseOID": "WC.SUPPDM.QNAM.RACE3"}]}, {"ItemOID": "IT.SUPPDM.QVAL.RACEOTH", "OrderNumber": 4, "Mandatory": "No", "WhereClauseRef": [{"WhereClauseOID": "WC.SUPPDM.QNAM.RACEOTH"}]}, {"ItemOID": "IT.SUPPDM.QVAL.RAND", "OrderNumber": 5, "Mandatory": "No", "WhereClauseRef": [{"WhereClauseOID": "WC.SUPPDM.QNAM.RAND"}]}, {"ItemOID": "IT.SUPPDM.QVAL.RANDNO", "OrderNumber": 6, "Mandatory": "No", "WhereClauseRef": [{"WhereClauseOID": "WC.SUPPDM.QNAM.RANDNO"}]}, {"ItemOID": "IT.SUPPDM.QVAL.SAFETY", "OrderNumber": 7, "Mandatory": "No", "MethodOID": "MT.SAFETY", "WhereClauseRef": [{"WhereClauseOID": "WC.SUPPDM.QNAM.SAFETY"}]}]}, {"OID": "VL.SUPPEG.QVAL", "ItemRef": [{"ItemOID": "IT.SUPPEG.QVAL.EGCLSIG", "OrderNumber": 1, "Mandatory": "No", "WhereClauseRef": [{"WhereClauseOID": "WC.SUPPEG.QNAM.EGCLSIG"}]}]}, {"OID": "VL.SUPPEX.QVAL", "ItemRef": [{"ItemOID": "IT.SUPPEX.QVAL.SMNO", "OrderNumber": 1, "Mandatory": "No", "WhereClauseRef": [{"WhereClauseOID": "WC.SUPPEX.QNAM.SMNO"}]}]}, {"OID": "VL.SUPPLB.QVAL", "ItemRef": [{"ItemOID": "IT.SUPPLB.QVAL.LBCLSIG", "OrderNumber": 1, "Mandatory": "No", "MethodOID": "MT.CLSIG", "WhereClauseRef": [{"WhereClauseOID": "WC.SUPPLB.QNAM.LBCLSIG"}]}]}, {"OID": "VL.SUPPQS.QVAL", "ItemRef": [{"ItemOID": "IT.SUPPQS.QVAL.RTRINIT", "OrderNumber": 1, "Mandatory": "No", "WhereClauseRef": [{"WhereClauseOID": "WC.SUPPQS.QNAM.RTRINIT"}]}]}, {"OID": "VL.SUPPVS.QVAL", "ItemRef": [{"ItemOID": "IT.SUPPVS.QVAL.VSCLSIG", "OrderNumber": 1, "Mandatory": "No", "MethodOID": "MT.CLSIG", "WhereClauseRef": [{"WhereClauseOID": "WC.SUPPVS.QNAM.VSCLSIG"}]}]}, {"OID": "VL.TS.TSVAL", "ItemRef": [{"ItemOID": "IT.TS.TSVAL.ADDON", "OrderNumber": 1, "Mandatory": "No", "WhereClauseRef": [{"WhereClauseOID": "WC.TS.TSPARMCD.ADDON"}]}, {"ItemOID": "IT.TS.TSVAL.AGEMAX", "OrderNumber": 2, "Mandatory": "No", "WhereClauseRef": [{"WhereClauseOID": "WC.TS.TSPARMCD.AGEMAX"}]}, {"ItemOID": "IT.TS.TSVAL.AGEMIN", "OrderNumber": 3, "Mandatory": "No", "WhereClauseRef": [{"WhereClauseOID": "WC.TS.TSPARMCD.AGEMIN"}]}, {"ItemOID": "IT.TS.TSVAL.AGESPAN", "OrderNumber": 4, "Mandatory": "No", "WhereClauseRef": [{"WhereClauseOID": "WC.TS.TSPARMCD.AGESPAN"}]}, {"ItemOID": "IT.TS.TSVAL.AGEU", "OrderNumber": 5, "Mandatory": "No", "WhereClauseRef": [{"WhereClauseOID": "WC.TS.TSPARMCD.AGEU"}]}, {"ItemOID": "IT.TS.TSVAL.DOSE", "OrderNumber": 6, "Mandatory": "No", "WhereClauseRef": [{"WhereClauseOID": "WC.TS.TSPARMCD.DOSE"}]}, {"ItemOID": "IT.TS.TSVAL.DOSFRQ", "OrderNumber": 7, "Mandatory": "No", "WhereClauseRef": [{"WhereClauseOID": "WC.TS.TSPARMCD.DOSFRQ"}]}, {"ItemOID": "IT.TS.TSVAL.DOSU", "OrderNumber": 8, "Mandatory": "No", "WhereClauseRef": [{"WhereClauseOID": "WC.TS.TSPARMCD.DOSU"}]}, {"ItemOID": "IT.TS.TSVAL.LENGTH", "OrderNumber": 9, "Mandatory": "No", "WhereClauseRef": [{"WhereClauseOID": "WC.TS.TSPARMCD.LENGTH"}]}, {"ItemOID": "IT.TS.TSVAL.OBJPRIM", "OrderNumber": 10, "Mandatory": "No", "WhereClauseRef": [{"WhereClauseOID": "WC.TS.TSPARMCD.OBJPRIM"}]}, {"ItemOID": "IT.TS.TSVAL.OBJSEC", "OrderNumber": 11, "Mandatory": "No", "WhereClauseRef": [{"WhereClauseOID": "WC.TS.TSPARMCD.OBJSEC"}]}, {"ItemOID": "IT.TS.TSVAL.PLANSUB", "OrderNumber": 12, "Mandatory": "No", "WhereClauseRef": [{"WhereClauseOID": "WC.TS.TSPARMCD.PLANSUB"}]}, {"ItemOID": "IT.TS.TSVAL.RANDOM", "OrderNumber": 13, "Mandatory": "No", "WhereClauseRef": [{"WhereClauseOID": "WC.TS.TSPARMCD.RANDOM"}]}, {"ItemOID": "IT.TS.TSVAL.ROUTE", "OrderNumber": 14, "Mandatory": "No", "WhereClauseRef": [{"WhereClauseOID": "WC.TS.TSPARMCD.ROUTE"}]}, {"ItemOID": "IT.TS.TSVAL.SEXPOP", "OrderNumber": 15, "Mandatory": "No", "WhereClauseRef": [{"WhereClauseOID": "WC.TS.TSPARMCD.SEXPOP"}]}, {"ItemOID": "IT.TS.TSVAL.SPONSOR", "OrderNumber": 16, "Mandatory": "No", "WhereClauseRef": [{"WhereClauseOID": "WC.TS.TSPARMCD.SPONSOR"}]}, {"ItemOID": "IT.TS.TSVAL.TBLIND", "OrderNumber": 17, "Mandatory": "No", "WhereClauseRef": [{"WhereClauseOID": "WC.TS.TSPARMCD.TBLIND"}]}, {"ItemOID": "IT.TS.TSVAL.TCNTRL", "OrderNumber": 18, "Mandatory": "No", "WhereClauseRef": [{"WhereClauseOID": "WC.TS.TSPARMCD.TCNTRL"}]}, {"ItemOID": "IT.TS.TSVAL.TINDTP", "OrderNumber": 19, "Mandatory": "No", "WhereClauseRef": [{"WhereClauseOID": "WC.TS.TSPARMCD.TINDTP"}]}, {"ItemOID": "IT.TS.TSVAL.TITLE", "OrderNumber": 20, "Mandatory": "No", "WhereClauseRef": [{"WhereClauseOID": "WC.TS.TSPARMCD.TITLE"}]}, {"ItemOID": "IT.TS.TSVAL.TPHASE", "OrderNumber": 21, "Mandatory": "No", "WhereClauseRef": [{"WhereClauseOID": "WC.TS.TSPARMCD.TPHASE"}]}, {"ItemOID": "IT.TS.TSVAL.TRT", "OrderNumber": 22, "Mandatory": "No", "WhereClauseRef": [{"WhereClauseOID": "WC.TS.TSPARMCD.TRT"}]}, {"ItemOID": "IT.TS.TSVAL.TTYPE", "OrderNumber": 23, "Mandatory": "No", "WhereClauseRef": [{"WhereClauseOID": "WC.TS.TSPARMCD.TTYPE"}]}]}, {"OID": "VL.VS.VSORRES", "ItemRef": [{"ItemOID": "IT.VS.VSORRES.DIABP", "OrderNumber": 1, "Mandatory": "Yes", "WhereClauseRef": [{"WhereClauseOID": "WC.VS.VSTESTCD.DIABP"}]}, {"ItemOID": "IT.VS.VSORRES.FRMSIZE", "OrderNumber": 2, "Mandatory": "No", "WhereClauseRef": [{"WhereClauseOID": "WC.VS.VSTESTCD.FRMSIZE"}]}, {"ItemOID": "IT.VS.VSORRES.HEIGHT", "OrderNumber": 3, "Mandatory": "Yes", "WhereClauseRef": [{"WhereClauseOID": "WC.VS.VSTESTCD.HEIGHT"}]}, {"ItemOID": "IT.VS.VSORRES.PULSE", "OrderNumber": 4, "Mandatory": "No", "WhereClauseRef": [{"WhereClauseOID": "WC.VS.VSTESTCD.PULSE"}]}, {"ItemOID": "IT.VS.VSORRES.SYSBP", "OrderNumber": 5, "Mandatory": "Yes", "WhereClauseRef": [{"WhereClauseOID": "WC.VS.VSTESTCD.SYSBP"}]}, {"ItemOID": "IT.VS.VSORRES.WEIGHT", "OrderNumber": 6, "Mandatory": "Yes", "WhereClauseRef": [{"WhereClauseOID": "WC.VS.VSTESTCD.WEIGHT"}]}]}, {"OID": "VL.VS.VSORRESU", "ItemRef": [{"ItemOID": "IT.VS.VSORRESU.HEIGHT.DM.COUNTRY.CMETRIC", "OrderNumber": 1, "Mandatory": "Yes", "WhereClauseRef": [{"WhereClauseOID": "WC.VS.VSTESTCD.HEIGHT.[DM].COUNTRY.CMETRIC"}]}, {"ItemOID": "IT.VS.VSORRESU.HEIGHT.DM.COUNTRY.CNMETRIC", "OrderNumber": 2, "Mandatory": "Yes", "WhereClauseRef": [{"WhereClauseOID": "WC.VS.VSTESTCD.HEIGHT.[DM].COUNTRY.CNMETRIC"}]}, {"ItemOID": "IT.VS.VSORRESU.WEIGHT.DM.COUNTRY.CMETRIC", "OrderNumber": 3, "Mandatory": "Yes", "WhereClauseRef": [{"WhereClauseOID": "WC.VS.VSTESTCD.WEIGHT.[DM].COUNTRY.CMETRIC"}]}, {"ItemOID": "IT.VS.VSORRESU.WEIGHT.DM.COUNTRY.CNMETRIC", "OrderNumber": 4, "Mandatory": "Yes", "WhereClauseRef": [{"WhereClauseOID": "WC.VS.VSTESTCD.WEIGHT.[DM].COUNTRY.CNMETRIC"}]}]}], "WhereClauseDef": [{"OID": "WC.DA.DATESTCD.DISPAMT", "RangeCheck": [{"SoftHard": "Soft", "ItemOID": "IT.DA.DATESTCD", "Comparator": "EQ", "CheckValue": [{"_content": "DISPAMT"}]}]}, {"OID": "WC.DA.DATESTCD.RETAMT", "RangeCheck": [{"SoftHard": "Soft", "ItemOID": "IT.DA.DATESTCD", "Comparator": "EQ", "CheckValue": [{"_content": "RETAMT"}]}]}, {"OID": "WC.EG.EGTESTCD.INTP", "RangeCheck": [{"SoftHard": "Soft", "ItemOID": "IT.EG.EGTESTCD", "Comparator": "EQ", "CheckValue": [{"_content": "INTP"}]}]}, {"OID": "WC.EG.EGTESTCD.PRMEAN", "RangeCheck": [{"SoftHard": "Soft", "ItemOID": "IT.EG.EGTESTCD", "Comparator": "EQ", "CheckValue": [{"_content": "PRMEAN"}]}]}, {"OID": "WC.EG.EGTESTCD.QRSDUR", "RangeCheck": [{"SoftHard": "Soft", "ItemOID": "IT.EG.EGTESTCD", "Comparator": "EQ", "CheckValue": [{"_content": "QRSDUR"}]}]}, {"OID": "WC.EG.EGTESTCD.QTMEAN", "RangeCheck": [{"SoftHard": "Soft", "ItemOID": "IT.EG.EGTESTCD", "Comparator": "EQ", "CheckValue": [{"_content": "QTMEAN"}]}]}, {"OID": "WC.EG.EGTESTCD.VRMEAN", "RangeCheck": [{"SoftHard": "Soft", "ItemOID": "IT.EG.EGTESTCD", "Comparator": "EQ", "CheckValue": [{"_content": "VRMEAN"}]}]}, {"OID": "WC.EG.EGTESTCD.QTCB", "RangeCheck": [{"SoftHard": "Soft", "ItemOID": "IT.EG.EGTESTCD", "Comparator": "EQ", "CheckValue": [{"_content": "QTCB"}]}]}, {"OID": "WC.EG.EGTESTCD.QTCF", "RangeCheck": [{"SoftHard": "Soft", "ItemOID": "IT.EG.EGTESTCD", "Comparator": "EQ", "CheckValue": [{"_content": "QTCF"}]}]}, {"OID": "WC.IE.IETESTCD.EXCL01", "RangeCheck": [{"SoftHard": "Soft", "ItemOID": "IT.IE.IETESTCD", "Comparator": "EQ", "CheckValue": [{"_content": "EXCL01"}]}]}, {"OID": "WC.IE.IETESTCD.EXCL02", "RangeCheck": [{"SoftHard": "Soft", "ItemOID": "IT.IE.IETESTCD", "Comparator": "EQ", "CheckValue": [{"_content": "EXCL02"}]}]}, {"OID": "WC.IE.IETESTCD.EXCL03", "RangeCheck": [{"SoftHard": "Soft", "ItemOID": "IT.IE.IETESTCD", "Comparator": "EQ", "CheckValue": [{"_content": "EXCL03"}]}]}, {"OID": "WC.IE.IETESTCD.INCL01", "RangeCheck": [{"SoftHard": "Soft", "ItemOID": "IT.IE.IETESTCD", "Comparator": "EQ", "CheckValue": [{"_content": "INCL01"}]}]}, {"OID": "WC.IE.IETESTCD.INCL02", "RangeCheck": [{"SoftHard": "Soft", "ItemOID": "IT.IE.IETESTCD", "Comparator": "EQ", "CheckValue": [{"_content": "INCL02"}]}]}, {"OID": "WC.IE.IETESTCD.INCL03", "RangeCheck": [{"SoftHard": "Soft", "ItemOID": "IT.IE.IETESTCD", "Comparator": "EQ", "CheckValue": [{"_content": "INCL03"}]}]}, {"OID": "WC.LB.LBTESTCD.BILI.LBCAT.CHEMISTRY.LBSPEC.BLOOD", "RangeCheck": [{"SoftHard": "Soft", "ItemOID": "IT.LB.LBTESTCD", "Comparator": "EQ", "CheckValue": [{"_content": "BILI"}]}, {"SoftHard": "Soft", "ItemOID": "IT.LB.LBCAT", "Comparator": "EQ", "CheckValue": [{"_content": "CHEMISTRY"}]}, {"SoftHard": "Soft", "ItemOID": "IT.LB.LBSPEC", "Comparator": "EQ", "CheckValue": [{"_content": "BLOOD"}]}]}, {"OID": "WC.LB.LBTESTCD.BUN.LBCAT.CHEMISTRY.LBSPEC.BLOOD", "RangeCheck": [{"SoftHard": "Soft", "ItemOID": "IT.LB.LBTESTCD", "Comparator": "EQ", "CheckValue": [{"_content": "BUN"}]}, {"SoftHard": "Soft", "ItemOID": "IT.LB.LBCAT", "Comparator": "EQ", "CheckValue": [{"_content": "CHEMISTRY"}]}, {"SoftHard": "Soft", "ItemOID": "IT.LB.LBSPEC", "Comparator": "EQ", "CheckValue": [{"_content": "BLOOD"}]}]}, {"OID": "WC.LB.LBTESTCD.GLUC.LBCAT.CHEMISTRY.LBSPEC.BLOOD", "RangeCheck": [{"SoftHard": "Soft", "ItemOID": "IT.LB.LBTESTCD", "Comparator": "EQ", "CheckValue": [{"_content": "GLUC"}]}, {"SoftHard": "Soft", "ItemOID": "IT.LB.LBCAT", "Comparator": "EQ", "CheckValue": [{"_content": "CHEMISTRY"}]}, {"SoftHard": "Soft", "ItemOID": "IT.LB.LBSPEC", "Comparator": "EQ", "CheckValue": [{"_content": "BLOOD"}]}]}, {"OID": "WC.LB.LBTESTCD.GLUC.LBCAT.URINALYSIS.LBSPEC.URINE.LBMETHOD.DIPSTICK", "RangeCheck": [{"SoftHard": "Soft", "ItemOID": "IT.LB.LBTESTCD", "Comparator": "EQ", "CheckValue": [{"_content": "GLUC"}]}, {"SoftHard": "Soft", "ItemOID": "IT.LB.LBCAT", "Comparator": "EQ", "CheckValue": [{"_content": "URINALYSIS"}]}, {"SoftHard": "Soft", "ItemOID": "IT.LB.LBSPEC", "Comparator": "EQ", "CheckValue": [{"_content": "URINE"}]}, {"SoftHard": "Soft", "ItemOID": "IT.LB.LBMETHOD", "Comparator": "EQ", "CheckValue": [{"_content": "DIPSTICK"}]}]}, {"OID": "WC.LB.LBTESTCD.GLUC.LBCAT.URINALYSIS.LBSPEC.URINE.LBMETHOD.QUANT", "RangeCheck": [{"SoftHard": "Soft", "ItemOID": "IT.LB.LBTESTCD", "Comparator": "EQ", "CheckValue": [{"_content": "GLUC"}]}, {"SoftHard": "Soft", "ItemOID": "IT.LB.LBCAT", "Comparator": "EQ", "CheckValue": [{"_content": "URINALYSIS"}]}, {"SoftHard": "Soft", "ItemOID": "IT.LB.LBSPEC", "Comparator": "EQ", "CheckValue": [{"_content": "URINE"}]}, {"SoftHard": "Soft", "ItemOID": "IT.LB.LBMETHOD", "Comparator": "EQ", "CheckValue": [{"_content": "QUANT"}]}]}, {"OID": "WC.LB.LBTESTCD.HCT.LBCAT.HEMATOLOGY.LBSPEC.BLOOD", "RangeCheck": [{"SoftHard": "Soft", "ItemOID": "IT.LB.LBTESTCD", "Comparator": "EQ", "CheckValue": [{"_content": "HCT"}]}, {"SoftHard": "Soft", "ItemOID": "IT.LB.LBCAT", "Comparator": "EQ", "CheckValue": [{"_content": "HEMATOLOGY"}]}, {"SoftHard": "Soft", "ItemOID": "IT.LB.LBSPEC", "Comparator": "EQ", "CheckValue": [{"_content": "BLOOD"}]}]}, {"OID": "WC.LB.LBTESTCD.HGB.LBCAT.HEMATOLOGY.LBSPEC.BLOOD", "RangeCheck": [{"SoftHard": "Soft", "ItemOID": "IT.LB.LBTESTCD", "Comparator": "EQ", "CheckValue": [{"_content": "HGB"}]}, {"SoftHard": "Soft", "ItemOID": "IT.LB.LBCAT", "Comparator": "EQ", "CheckValue": [{"_content": "HEMATOLOGY"}]}, {"SoftHard": "Soft", "ItemOID": "IT.LB.LBSPEC", "Comparator": "EQ", "CheckValue": [{"_content": "BLOOD"}]}]}, {"OID": "WC.LB.LBTESTCD.LYM.LBCAT.HEMATOLOGY.LBSPEC.BLOOD", "RangeCheck": [{"SoftHard": "Soft", "ItemOID": "IT.LB.LBTESTCD", "Comparator": "EQ", "CheckValue": [{"_content": "LYM"}]}, {"SoftHard": "Soft", "ItemOID": "IT.LB.LBCAT", "Comparator": "EQ", "CheckValue": [{"_content": "HEMATOLOGY"}]}, {"SoftHard": "Soft", "ItemOID": "IT.LB.LBSPEC", "Comparator": "EQ", "CheckValue": [{"_content": "BLOOD"}]}]}, {"OID": "WC.LB.LBTESTCD.OCCBLD.LBCAT.URINALYSIS.LBSPEC.URINE", "RangeCheck": [{"SoftHard": "Soft", "ItemOID": "IT.LB.LBTESTCD", "Comparator": "EQ", "CheckValue": [{"_content": "OCCBLD"}]}, {"SoftHard": "Soft", "ItemOID": "IT.LB.LBCAT", "Comparator": "EQ", "CheckValue": [{"_content": "URINALYSIS"}]}, {"SoftHard": "Soft", "ItemOID": "IT.LB.LBSPEC", "Comparator": "EQ", "CheckValue": [{"_content": "URINE"}]}]}, {"OID": "WC.LB.LBTESTCD.PH.LBCAT.URINALYSIS.LBSPEC.URINE", "RangeCheck": [{"SoftHard": "Soft", "ItemOID": "IT.LB.LBTESTCD", "Comparator": "EQ", "CheckValue": [{"_content": "PH"}]}, {"SoftHard": "Soft", "ItemOID": "IT.LB.LBCAT", "Comparator": "EQ", "CheckValue": [{"_content": "URINALYSIS"}]}, {"SoftHard": "Soft", "ItemOID": "IT.LB.LBSPEC", "Comparator": "EQ", "CheckValue": [{"_content": "URINE"}]}]}, {"OID": "WC.LB.LBTESTCD.VITB12.LBCAT.CHEMISTRY.LBSPEC.SERUM", "RangeCheck": [{"SoftHard": "Soft", "ItemOID": "IT.LB.LBTESTCD", "Comparator": "EQ", "CheckValue": [{"_content": "VITB12"}]}, {"SoftHard": "Soft", "ItemOID": "IT.LB.LBCAT", "Comparator": "EQ", "CheckValue": [{"_content": "CHEMISTRY"}]}, {"SoftHard": "Soft", "ItemOID": "IT.LB.LBSPEC", "Comparator": "EQ", "CheckValue": [{"_content": "SERUM"}]}]}, {"OID": "WC.LB.LBTESTCD.VITB9.LBCAT.CHEMISTRY.LBSPEC.BLOOD", "RangeCheck": [{"SoftHard": "Soft", "ItemOID": "IT.LB.LBTESTCD", "Comparator": "EQ", "CheckValue": [{"_content": "VITB9"}]}, {"SoftHard": "Soft", "ItemOID": "IT.LB.LBCAT", "Comparator": "EQ", "CheckValue": [{"_content": "CHEMISTRY"}]}, {"SoftHard": "Soft", "ItemOID": "IT.LB.LBSPEC", "Comparator": "EQ", "CheckValue": [{"_content": "BLOOD"}]}]}, {"OID": "WC.PE.PETESTCD.PE01", "RangeCheck": [{"SoftHard": "Soft", "ItemOID": "IT.PE.PETESTCD", "Comparator": "EQ", "CheckValue": [{"_content": "PE01"}]}]}, {"OID": "WC.PE.PETESTCD.PE02", "RangeCheck": [{"SoftHard": "Soft", "ItemOID": "IT.PE.PETESTCD", "Comparator": "EQ", "CheckValue": [{"_content": "PE02"}]}]}, {"OID": "WC.PE.PETESTCD.PE03", "RangeCheck": [{"SoftHard": "Soft", "ItemOID": "IT.PE.PETESTCD", "Comparator": "EQ", "CheckValue": [{"_content": "PE03"}]}]}, {"OID": "WC.PE.PETESTCD.PE04", "RangeCheck": [{"SoftHard": "Soft", "ItemOID": "IT.PE.PETESTCD", "Comparator": "EQ", "CheckValue": [{"_content": "PE04"}]}]}, {"OID": "WC.PE.PETESTCD.PE05", "RangeCheck": [{"SoftHard": "Soft", "ItemOID": "IT.PE.PETESTCD", "Comparator": "EQ", "CheckValue": [{"_content": "PE05"}]}]}, {"OID": "WC.PE.PETESTCD.PE06", "RangeCheck": [{"SoftHard": "Soft", "ItemOID": "IT.PE.PETESTCD", "Comparator": "EQ", "CheckValue": [{"_content": "PE06"}]}]}, {"OID": "WC.PE.PETESTCD.PE07", "RangeCheck": [{"SoftHard": "Soft", "ItemOID": "IT.PE.PETESTCD", "Comparator": "EQ", "CheckValue": [{"_content": "PE07"}]}]}, {"OID": "WC.PE.PETESTCD.PE08", "RangeCheck": [{"SoftHard": "Soft", "ItemOID": "IT.PE.PETESTCD", "Comparator": "EQ", "CheckValue": [{"_content": "PE08"}]}]}, {"OID": "WC.PE.PETESTCD.PE09", "RangeCheck": [{"SoftHard": "Soft", "ItemOID": "IT.PE.PETESTCD", "Comparator": "EQ", "CheckValue": [{"_content": "PE09"}]}]}, {"OID": "WC.QS.QSTESTCD.CGIGLOB", "RangeCheck": [{"SoftHard": "Soft", "ItemOID": "IT.QS.QSTESTCD", "Comparator": "EQ", "CheckValue": [{"_content": "CGIGLOB"}]}]}, {"OID": "WC.QS.QSTESTCD.CSDD01", "RangeCheck": [{"SoftHard": "Soft", "ItemOID": "IT.QS.QSTESTCD", "Comparator": "EQ", "CheckValue": [{"_content": "CSDD01"}]}]}, {"OID": "WC.QS.QSTESTCD.CSDD02", "RangeCheck": [{"SoftHard": "Soft", "ItemOID": "IT.QS.QSTESTCD", "Comparator": "EQ", "CheckValue": [{"_content": "CSDD02"}]}]}, {"OID": "WC.QS.QSTESTCD.CSDD03", "RangeCheck": [{"SoftHard": "Soft", "ItemOID": "IT.QS.QSTESTCD", "Comparator": "EQ", "CheckValue": [{"_content": "CSDD03"}]}]}, {"OID": "WC.QS.QSTESTCD.CSDD04", "RangeCheck": [{"SoftHard": "Soft", "ItemOID": "IT.QS.QSTESTCD", "Comparator": "EQ", "CheckValue": [{"_content": "CSDD04"}]}]}, {"OID": "WC.QS.QSTESTCD.CSDD05", "RangeCheck": [{"SoftHard": "Soft", "ItemOID": "IT.QS.QSTESTCD", "Comparator": "EQ", "CheckValue": [{"_content": "CSDD05"}]}]}, {"OID": "WC.QS.QSTESTCD.CSDD06", "RangeCheck": [{"SoftHard": "Soft", "ItemOID": "IT.QS.QSTESTCD", "Comparator": "EQ", "CheckValue": [{"_content": "CSDD06"}]}]}, {"OID": "WC.QS.QSTESTCD.CSDD07", "RangeCheck": [{"SoftHard": "Soft", "ItemOID": "IT.QS.QSTESTCD", "Comparator": "EQ", "CheckValue": [{"_content": "CSDD07"}]}]}, {"OID": "WC.QS.QSTESTCD.CSDD08", "RangeCheck": [{"SoftHard": "Soft", "ItemOID": "IT.QS.QSTESTCD", "Comparator": "EQ", "CheckValue": [{"_content": "CSDD08"}]}]}, {"OID": "WC.QS.QSTESTCD.CSDD09", "RangeCheck": [{"SoftHard": "Soft", "ItemOID": "IT.QS.QSTESTCD", "Comparator": "EQ", "CheckValue": [{"_content": "CSDD09"}]}]}, {"OID": "WC.QS.QSTESTCD.CSDD10", "RangeCheck": [{"SoftHard": "Soft", "ItemOID": "IT.QS.QSTESTCD", "Comparator": "EQ", "CheckValue": [{"_content": "CSDD10"}]}]}, {"OID": "WC.QS.QSTESTCD.CSDD11", "RangeCheck": [{"SoftHard": "Soft", "ItemOID": "IT.QS.QSTESTCD", "Comparator": "EQ", "CheckValue": [{"_content": "CSDD11"}]}]}, {"OID": "WC.QS.QSTESTCD.CSDD12", "RangeCheck": [{"SoftHard": "Soft", "ItemOID": "IT.QS.QSTESTCD", "Comparator": "EQ", "CheckValue": [{"_content": "CSDD12"}]}]}, {"OID": "WC.QS.QSTESTCD.CSDD13", "RangeCheck": [{"SoftHard": "Soft", "ItemOID": "IT.QS.QSTESTCD", "Comparator": "EQ", "CheckValue": [{"_content": "CSDD13"}]}]}, {"OID": "WC.QS.QSTESTCD.CSDD14", "RangeCheck": [{"SoftHard": "Soft", "ItemOID": "IT.QS.QSTESTCD", "Comparator": "EQ", "CheckValue": [{"_content": "CSDD14"}]}]}, {"OID": "WC.QS.QSTESTCD.CSDD15", "RangeCheck": [{"SoftHard": "Soft", "ItemOID": "IT.QS.QSTESTCD", "Comparator": "EQ", "CheckValue": [{"_content": "CSDD15"}]}]}, {"OID": "WC.QS.QSTESTCD.CSDD16", "RangeCheck": [{"SoftHard": "Soft", "ItemOID": "IT.QS.QSTESTCD", "Comparator": "EQ", "CheckValue": [{"_content": "CSDD16"}]}]}, {"OID": "WC.QS.QSTESTCD.CSDD17", "RangeCheck": [{"SoftHard": "Soft", "ItemOID": "IT.QS.QSTESTCD", "Comparator": "EQ", "CheckValue": [{"_content": "CSDD17"}]}]}, {"OID": "WC.QS.QSTESTCD.CSDD18", "RangeCheck": [{"SoftHard": "Soft", "ItemOID": "IT.QS.QSTESTCD", "Comparator": "EQ", "CheckValue": [{"_content": "CSDD18"}]}]}, {"OID": "WC.QS.QSTESTCD.CSDD19", "RangeCheck": [{"SoftHard": "Soft", "ItemOID": "IT.QS.QSTESTCD", "Comparator": "EQ", "CheckValue": [{"_content": "CSDD19"}]}]}, {"OID": "WC.QS.QSTESTCD.CSDDTOT", "RangeCheck": [{"SoftHard": "Soft", "ItemOID": "IT.QS.QSTESTCD", "Comparator": "EQ", "CheckValue": [{"_content": "CSDDTOT"}]}]}, {"OID": "WC.QS.QSTESTCD.MMSEA1", "RangeCheck": [{"SoftHard": "Soft", "ItemOID": "IT.QS.QSTESTCD", "Comparator": "EQ", "CheckValue": [{"_content": "MMSEA1"}]}]}, {"OID": "WC.QS.QSTESTCD.MMSEA2", "RangeCheck": [{"SoftHard": "Soft", "ItemOID": "IT.QS.QSTESTCD", "Comparator": "EQ", "CheckValue": [{"_content": "MMSEA2"}]}]}, {"OID": "WC.QS.QSTESTCD.MMSEB", "RangeCheck": [{"SoftHard": "Soft", "ItemOID": "IT.QS.QSTESTCD", "Comparator": "EQ", "CheckValue": [{"_content": "MMSEB"}]}]}, {"OID": "WC.QS.QSTESTCD.MMSEC", "RangeCheck": [{"SoftHard": "Soft", "ItemOID": "IT.QS.QSTESTCD", "Comparator": "EQ", "CheckValue": [{"_content": "MMSEC"}]}]}, {"OID": "WC.QS.QSTESTCD.MMSED", "RangeCheck": [{"SoftHard": "Soft", "ItemOID": "IT.QS.QSTESTCD", "Comparator": "EQ", "CheckValue": [{"_content": "MMSED"}]}]}, {"OID": "WC.QS.QSTESTCD.MMSEET", "RangeCheck": [{"SoftHard": "Soft", "ItemOID": "IT.QS.QSTESTCD", "Comparator": "EQ", "CheckValue": [{"_content": "MMSEET"}]}]}, {"OID": "WC.QS.QSTESTCD.MMSETOT", "RangeCheck": [{"SoftHard": "Soft", "ItemOID": "IT.QS.QSTESTCD", "Comparator": "EQ", "CheckValue": [{"_content": "MMSETOT"}]}]}, {"OID": "WC.SC.SCTESTCD.EDLEVEL", "RangeCheck": [{"SoftHard": "Soft", "ItemOID": "IT.SC.SCTESTCD", "Comparator": "EQ", "CheckValue": [{"_content": "EDLEVEL"}]}]}, {"OID": "WC.SC.SCTESTCD.MARISTAT", "RangeCheck": [{"SoftHard": "Soft", "ItemOID": "IT.SC.SCTESTCD", "Comparator": "EQ", "CheckValue": [{"_content": "MARISTAT"}]}]}, {"OID": "WC.SC.SCTESTCD.SUBJINIT", "RangeCheck": [{"SoftHard": "Soft", "ItemOID": "IT.SC.SCTESTCD", "Comparator": "EQ", "CheckValue": [{"_content": "SUBJINIT"}]}]}, {"OID": "WC.SUPPAE.QNAM.AETRTEM", "RangeCheck": [{"SoftHard": "Soft", "ItemOID": "IT.SUPPAE.QNAM", "Comparator": "EQ", "CheckValue": [{"_content": "AETRTEM"}]}]}, {"OID": "WC.SUPPAE.QNAM.HLGT", "RangeCheck": [{"SoftHard": "Soft", "ItemOID": "IT.SUPPAE.QNAM", "Comparator": "EQ", "CheckValue": [{"_content": "HLGT"}]}]}, {"OID": "WC.SUPPAE.QNAM.HLT", "RangeCheck": [{"SoftHard": "Soft", "ItemOID": "IT.SUPPAE.QNAM", "Comparator": "EQ", "CheckValue": [{"_content": "HLT"}]}]}, {"OID": "WC.SUPPAE.QNAM.LLT", "RangeCheck": [{"SoftHard": "Soft", "ItemOID": "IT.SUPPAE.QNAM", "Comparator": "EQ", "CheckValue": [{"_content": "LLT"}]}]}, {"OID": "WC.SUPPCM.QNAM.ATC4CODE", "RangeCheck": [{"SoftHard": "Soft", "ItemOID": "IT.SUPPCM.QNAM", "Comparator": "EQ", "CheckValue": [{"_content": "ATC4CODE"}]}]}, {"OID": "WC.SUPPCM.QNAM.ATC4TERM", "RangeCheck": [{"SoftHard": "Soft", "ItemOID": "IT.SUPPCM.QNAM", "Comparator": "EQ", "CheckValue": [{"_content": "ATC4TERM"}]}]}, {"OID": "WC.SUPPCM.QNAM.CPREFCD", "RangeCheck": [{"SoftHard": "Soft", "ItemOID": "IT.SUPPCM.QNAM", "Comparator": "EQ", "CheckValue": [{"_content": "CPREFCD"}]}]}, {"OID": "WC.SUPPCM.QNAM.PDDREAS", "RangeCheck": [{"SoftHard": "Soft", "ItemOID": "IT.SUPPCM.QNAM", "Comparator": "EQ", "CheckValue": [{"_content": "PDDREAS"}]}]}, {"OID": "WC.SUPPCM.QNAM.PDRESP", "RangeCheck": [{"SoftHard": "Soft", "ItemOID": "IT.SUPPCM.QNAM", "Comparator": "EQ", "CheckValue": [{"_content": "PDRESP"}]}]}, {"OID": "WC.SUPPDM.QNAM.RACE1", "RangeCheck": [{"SoftHard": "Soft", "ItemOID": "IT.SUPPDM.QNAM", "Comparator": "EQ", "CheckValue": [{"_content": "RACE1"}]}]}, {"OID": "WC.SUPPDM.QNAM.RACE2", "RangeCheck": [{"SoftHard": "Soft", "ItemOID": "IT.SUPPDM.QNAM", "Comparator": "EQ", "CheckValue": [{"_content": "RACE2"}]}]}, {"OID": "WC.SUPPDM.QNAM.RACE3", "RangeCheck": [{"SoftHard": "Soft", "ItemOID": "IT.SUPPDM.QNAM", "Comparator": "EQ", "CheckValue": [{"_content": "RACE3"}]}]}, {"OID": "WC.SUPPDM.QNAM.RACEOTH", "RangeCheck": [{"SoftHard": "Soft", "ItemOID": "IT.SUPPDM.QNAM", "Comparator": "EQ", "CheckValue": [{"_content": "RACEOTH"}]}]}, {"OID": "WC.SUPPDM.QNAM.RAND", "RangeCheck": [{"SoftHard": "Soft", "ItemOID": "IT.SUPPDM.QNAM", "Comparator": "EQ", "CheckValue": [{"_content": "RAND"}]}]}, {"OID": "WC.SUPPDM.QNAM.RANDNO", "RangeCheck": [{"SoftHard": "Soft", "ItemOID": "IT.SUPPDM.QNAM", "Comparator": "EQ", "CheckValue": [{"_content": "RANDNO"}]}]}, {"OID": "WC.SUPPDM.QNAM.SAFETY", "RangeCheck": [{"SoftHard": "Soft", "ItemOID": "IT.SUPPDM.QNAM", "Comparator": "EQ", "CheckValue": [{"_content": "SAFETY"}]}]}, {"OID": "WC.SUPPEG.QNAM.EGCLSIG", "RangeCheck": [{"SoftHard": "Soft", "ItemOID": "IT.SUPPEG.QNAM", "Comparator": "EQ", "CheckValue": [{"_content": "EGCLSIG"}]}]}, {"OID": "WC.SUPPEX.QNAM.SMNO", "RangeCheck": [{"SoftHard": "Soft", "ItemOID": "IT.SUPPEX.QNAM", "Comparator": "EQ", "CheckValue": [{"_content": "SMNO"}]}]}, {"OID": "WC.SUPPLB.QNAM.LBCLSIG", "RangeCheck": [{"SoftHard": "Soft", "ItemOID": "IT.SUPPLB.QNAM", "Comparator": "EQ", "CheckValue": [{"_content": "LBCLSIG"}]}]}, {"OID": "WC.SUPPQS.QNAM.RTRINIT", "RangeCheck": [{"SoftHard": "Soft", "ItemOID": "IT.SUPPQS.QNAM", "Comparator": "EQ", "CheckValue": [{"_content": "RTRINIT"}]}]}, {"OID": "WC.SUPPVS.QNAM.VSCLSIG", "RangeCheck": [{"SoftHard": "Soft", "ItemOID": "IT.SUPPVS.QNAM", "Comparator": "EQ", "CheckValue": [{"_content": "VSCLSIG"}]}]}, {"OID": "WC.TS.TSPARMCD.ADDON", "RangeCheck": [{"SoftHard": "Soft", "ItemOID": "IT.TS.TSPARMCD", "Comparator": "EQ", "CheckValue": [{"_content": "ADDON"}]}]}, {"OID": "WC.TS.TSPARMCD.AGEMAX", "RangeCheck": [{"SoftHard": "Soft", "ItemOID": "IT.TS.TSPARMCD", "Comparator": "EQ", "CheckValue": [{"_content": "AGEMAX"}]}]}, {"OID": "WC.TS.TSPARMCD.AGEMIN", "RangeCheck": [{"SoftHard": "Soft", "ItemOID": "IT.TS.TSPARMCD", "Comparator": "EQ", "CheckValue": [{"_content": "AGEMIN"}]}]}, {"OID": "WC.TS.TSPARMCD.AGESPAN", "RangeCheck": [{"SoftHard": "Soft", "ItemOID": "IT.TS.TSPARMCD", "Comparator": "EQ", "CheckValue": [{"_content": "AGESPAN"}]}]}, {"OID": "WC.TS.TSPARMCD.AGEU", "RangeCheck": [{"SoftHard": "Soft", "ItemOID": "IT.TS.TSPARMCD", "Comparator": "EQ", "CheckValue": [{"_content": "AGEU"}]}]}, {"OID": "WC.TS.TSPARMCD.DOSE", "RangeCheck": [{"SoftHard": "Soft", "ItemOID": "IT.TS.TSPARMCD", "Comparator": "EQ", "CheckValue": [{"_content": "DOSE"}]}]}, {"OID": "WC.TS.TSPARMCD.DOSFRQ", "RangeCheck": [{"SoftHard": "Soft", "ItemOID": "IT.TS.TSPARMCD", "Comparator": "EQ", "CheckValue": [{"_content": "DOSFRQ"}]}]}, {"OID": "WC.TS.TSPARMCD.DOSU", "RangeCheck": [{"SoftHard": "Soft", "ItemOID": "IT.TS.TSPARMCD", "Comparator": "EQ", "CheckValue": [{"_content": "DOSU"}]}]}, {"OID": "WC.TS.TSPARMCD.LENGTH", "RangeCheck": [{"SoftHard": "Soft", "ItemOID": "IT.TS.TSPARMCD", "Comparator": "EQ", "CheckValue": [{"_content": "LENGTH"}]}]}, {"OID": "WC.TS.TSPARMCD.OBJPRIM", "RangeCheck": [{"SoftHard": "Soft", "ItemOID": "IT.TS.TSPARMCD", "Comparator": "EQ", "CheckValue": [{"_content": "OBJPRIM"}]}]}, {"OID": "WC.TS.TSPARMCD.OBJSEC", "RangeCheck": [{"SoftHard": "Soft", "ItemOID": "IT.TS.TSPARMCD", "Comparator": "EQ", "CheckValue": [{"_content": "OBJSEC"}]}]}, {"OID": "WC.TS.TSPARMCD.PLANSUB", "RangeCheck": [{"SoftHard": "Soft", "ItemOID": "IT.TS.TSPARMCD", "Comparator": "EQ", "CheckValue": [{"_content": "PLANSUB"}]}]}, {"OID": "WC.TS.TSPARMCD.RANDOM", "RangeCheck": [{"SoftHard": "Soft", "ItemOID": "IT.TS.TSPARMCD", "Comparator": "EQ", "CheckValue": [{"_content": "RANDOM"}]}]}, {"OID": "WC.TS.TSPARMCD.ROUTE", "RangeCheck": [{"SoftHard": "Soft", "ItemOID": "IT.TS.TSPARMCD", "Comparator": "EQ", "CheckValue": [{"_content": "ROUTE"}]}]}, {"OID": "WC.TS.TSPARMCD.SEXPOP", "RangeCheck": [{"SoftHard": "Soft", "ItemOID": "IT.TS.TSPARMCD", "Comparator": "EQ", "CheckValue": [{"_content": "SEXPOP"}]}]}, {"OID": "WC.TS.TSPARMCD.SPONSOR", "RangeCheck": [{"SoftHard": "Soft", "ItemOID": "IT.TS.TSPARMCD", "Comparator": "EQ", "CheckValue": [{"_content": "SPONSOR"}]}]}, {"OID": "WC.TS.TSPARMCD.TBLIND", "RangeCheck": [{"SoftHard": "Soft", "ItemOID": "IT.TS.TSPARMCD", "Comparator": "EQ", "CheckValue": [{"_content": "TBLIND"}]}]}, {"OID": "WC.TS.TSPARMCD.TCNTRL", "RangeCheck": [{"SoftHard": "Soft", "ItemOID": "IT.TS.TSPARMCD", "Comparator": "EQ", "CheckValue": [{"_content": "TCNTRL"}]}]}, {"OID": "WC.TS.TSPARMCD.TINDTP", "RangeCheck": [{"SoftHard": "Soft", "ItemOID": "IT.TS.TSPARMCD", "Comparator": "EQ", "CheckValue": [{"_content": "TINDTP"}]}]}, {"OID": "WC.TS.TSPARMCD.TITLE", "RangeCheck": [{"SoftHard": "Soft", "ItemOID": "IT.TS.TSPARMCD", "Comparator": "EQ", "CheckValue": [{"_content": "TITLE"}]}]}, {"OID": "WC.TS.TSPARMCD.TPHASE", "RangeCheck": [{"SoftHard": "Soft", "ItemOID": "IT.TS.TSPARMCD", "Comparator": "EQ", "CheckValue": [{"_content": "TPHASE"}]}]}, {"OID": "WC.TS.TSPARMCD.TRT", "RangeCheck": [{"SoftHard": "Soft", "ItemOID": "IT.TS.TSPARMCD", "Comparator": "EQ", "CheckValue": [{"_content": "TRT"}]}]}, {"OID": "WC.TS.TSPARMCD.TTYPE", "RangeCheck": [{"SoftHard": "Soft", "ItemOID": "IT.TS.TSPARMCD", "Comparator": "EQ", "CheckValue": [{"_content": "TTYPE"}]}]}, {"OID": "WC.VS.VSTESTCD.DIABP", "RangeCheck": [{"SoftHard": "Soft", "ItemOID": "IT.VS.VSTESTCD", "Comparator": "EQ", "CheckValue": [{"_content": "DIABP"}]}]}, {"OID": "WC.VS.VSTESTCD.FRMSIZE", "RangeCheck": [{"SoftHard": "Soft", "ItemOID": "IT.VS.VSTESTCD", "Comparator": "EQ", "CheckValue": [{"_content": "FRMSIZE"}]}]}, {"OID": "WC.VS.VSTESTCD.HEIGHT", "RangeCheck": [{"SoftHard": "Soft", "ItemOID": "IT.VS.VSTESTCD", "Comparator": "EQ", "CheckValue": [{"_content": "HEIGHT"}]}]}, {"OID": "WC.VS.VSTESTCD.PULSE", "RangeCheck": [{"SoftHard": "Soft", "ItemOID": "IT.VS.VSTESTCD", "Comparator": "EQ", "CheckValue": [{"_content": "PULSE"}]}]}, {"OID": "WC.VS.VSTESTCD.SYSBP", "RangeCheck": [{"SoftHard": "Soft", "ItemOID": "IT.VS.VSTESTCD", "Comparator": "EQ", "CheckValue": [{"_content": "SYSBP"}]}]}, {"OID": "WC.VS.VSTESTCD.WEIGHT", "RangeCheck": [{"SoftHard": "Soft", "ItemOID": "IT.VS.VSTESTCD", "Comparator": "EQ", "CheckValue": [{"_content": "WEIGHT"}]}]}, {"OID": "WC.VS.VSTESTCD.HEIGHT.[DM].COUNTRY.CMETRIC", "CommentOID": "COM.SUBJECTDATA-JOIN-DM", "RangeCheck": [{"SoftHard": "Soft", "ItemOID": "IT.VS.VSTESTCD", "Comparator": "EQ", "CheckValue": [{"_content": "HEIGHT"}]}, {"SoftHard": "Soft", "ItemOID": "IT.DM.COUNTRY", "Comparator": "IN", "CheckValue": [{"_content": "CAN"}, {"_content": "MEX"}]}]}, {"OID": "WC.VS.VSTESTCD.HEIGHT.[DM].COUNTRY.CNMETRIC", "CommentOID": "COM.SUBJECTDATA-JOIN-DM", "RangeCheck": [{"SoftHard": "Soft", "ItemOID": "IT.VS.VSTESTCD", "Comparator": "EQ", "CheckValue": [{"_content": "HEIGHT"}]}, {"SoftHard": "Soft", "ItemOID": "IT.DM.COUNTRY", "Comparator": "EQ", "CheckValue": [{"_content": "USA"}]}]}, {"OID": "WC.VS.VSTESTCD.WEIGHT.[DM].COUNTRY.CMETRIC", "CommentOID": "COM.SUBJECTDATA-JOIN-DM", "RangeCheck": [{"SoftHard": "Soft", "ItemOID": "IT.VS.VSTESTCD", "Comparator": "EQ", "CheckValue": [{"_content": "WEIGHT"}]}, {"SoftHard": "Soft", "ItemOID": "IT.DM.COUNTRY", "Comparator": "IN", "CheckValue": [{"_content": "CAN"}, {"_content": "MEX"}]}]}, {"OID": "WC.VS.VSTESTCD.WEIGHT.[DM].COUNTRY.CNMETRIC", "CommentOID": "COM.SUBJECTDATA-JOIN-DM", "RangeCheck": [{"SoftHard": "Soft", "ItemOID": "IT.VS.VSTESTCD", "Comparator": "EQ", "CheckValue": [{"_content": "WEIGHT"}]}, {"SoftHard": "Soft", "ItemOID": "IT.DM.COUNTRY", "Comparator": "EQ", "CheckValue": [{"_content": "USA"}]}]}], "ItemGroupDef": [{"OID": "IG.TA", "Domain": "TA", "Name": "TA", "Repeating": "No", "IsReferenceData": "Yes", "SASDatasetName": "TA", "Purpose": "Tabulation", "Structure": "One record per planned Element per Arm", "Class": "TRIAL DESIGN", "ArchiveLocationID": "LF.TA", "Description": {"TranslatedText": [{"lang": "en", "_content": "Trial Arms"}]}, "ItemRef": [{"ItemOID": "IT.STUDYID", "OrderNumber": 1, "Mandatory": "Yes", "KeySequence": 1}, {"ItemOID": "IT.TA.DOMAIN", "OrderNumber": 2, "Mandatory": "Yes"}, {"ItemOID": "IT.TA.ARMCD", "OrderNumber": 3, "Mandatory": "Yes", "KeySequence": 2}, {"ItemOID": "IT.TA.ARM", "OrderNumber": 4, "Mandatory": "Yes"}, {"ItemOID": "IT.TA.TAETORD", "OrderNumber": 5, "Mandatory": "Yes", "KeySequence": 3}, {"ItemOID": "IT.TA.ETCD", "OrderNumber": 6, "Mandatory": "Yes"}, {"ItemOID": "IT.TA.ELEMENT", "OrderNumber": 7, "Mandatory": "No"}, {"ItemOID": "IT.TA.TABRANCH", "OrderNumber": 8, "Mandatory": "No"}, {"ItemOID": "IT.TA.TATRANS", "OrderNumber": 9, "Mandatory": "No"}, {"ItemOID": "IT.TA.EPOCH", "OrderNumber": 10, "Mandatory": "Yes"}], "leaf": {"ID": "LF.TA", "href": "ta.xpt", "title": {"_content": "ta.xpt"}}}, {"OID": "IG.TE", "Domain": "TE", "Name": "TE", "Repeating": "No", "IsReferenceData": "Yes", "SASDatasetName": "TE", "Purpose": "Tabulation", "Structure": "One record per planned Element", "Class": "TRIAL DESIGN", "ArchiveLocationID": "LF.TE", "Description": {"TranslatedText": [{"lang": "en", "_content": "Trial Elements"}]}, "ItemRef": [{"ItemOID": "IT.STUDYID", "OrderNumber": 1, "Mandatory": "Yes", "KeySequence": 1}, {"ItemOID": "IT.TE.DOMAIN", "OrderNumber": 2, "Mandatory": "Yes"}, {"ItemOID": "IT.TE.ETCD", "OrderNumber": 3, "Mandatory": "Yes", "KeySequence": 2}, {"ItemOID": "IT.TE.ELEMENT", "OrderNumber": 4, "Mandatory": "Yes"}, {"ItemOID": "IT.TE.TESTRL", "OrderNumber": 5, "Mandatory": "Yes"}, {"ItemOID": "IT.TE.TEDUR", "OrderNumber": 6, "Mandatory": "No"}], "leaf": {"ID": "LF.TE", "href": "te.xpt", "title": {"_content": "te.xpt"}}}, {"OID": "IG.TI", "Domain": "TI", "Name": "TI", "Repeating": "No", "IsReferenceData": "Yes", "SASDatasetName": "TI", "Purpose": "Tabulation", "Structure": "One record per I/E criterion", "Class": "TRIAL DESIGN", "ArchiveLocationID": "LF.TI", "Description": {"TranslatedText": [{"lang": "en", "_content": "Trial Inclusion/Exclusion Criteria"}]}, "ItemRef": [{"ItemOID": "IT.STUDYID", "OrderNumber": 1, "Mandatory": "Yes", "KeySequence": 1}, {"ItemOID": "IT.TI.DOMAIN", "OrderNumber": 2, "Mandatory": "Yes"}, {"ItemOID": "IT.TI.IETESTCD", "OrderNumber": 3, "Mandatory": "Yes", "KeySequence": 2}, {"ItemOID": "IT.TI.IETEST", "OrderNumber": 4, "Mandatory": "Yes"}, {"ItemOID": "IT.TI.IECAT", "OrderNumber": 5, "Mandatory": "Yes"}], "leaf": {"ID": "LF.TI", "href": "ti.xpt", "title": {"_content": "ti.xpt"}}}, {"OID": "IG.TS", "Domain": "TS", "Name": "TS", "Repeating": "No", "IsReferenceData": "Yes", "SASDatasetName": "TS", "Purpose": "Tabulation", "Structure": "One record per trial summary parameter value", "Class": "TRIAL DESIGN", "ArchiveLocationID": "LF.TS", "Description": {"TranslatedText": [{"lang": "en", "_content": "Trial Summary"}]}, "ItemRef": [{"ItemOID": "IT.STUDYID", "OrderNumber": 1, "Mandatory": "Yes", "KeySequence": 1}, {"ItemOID": "IT.TS.DOMAIN", "OrderNumber": 2, "Mandatory": "Yes"}, {"ItemOID": "IT.TS.TSSEQ", "OrderNumber": 3, "Mandatory": "Yes", "KeySequence": 3, "MethodOID": "MT.TSSEQ"}, {"ItemOID": "IT.TS.TSPARMCD", "OrderNumber": 4, "Mandatory": "Yes", "KeySequence": 2}, {"ItemOID": "IT.TS.TSPARM", "OrderNumber": 5, "Mandatory": "Yes"}, {"ItemOID": "IT.TS.TSVAL", "OrderNumber": 6, "Mandatory": "Yes"}], "leaf": {"ID": "LF.TS", "href": "ts.xpt", "title": {"_content": "ts.xpt"}}}, {"OID": "IG.TV", "Domain": "TV", "Name": "TV", "Repeating": "No", "IsReferenceData": "Yes", "SASDatasetName": "TV", "Purpose": "Tabulation", "Structure": "One record per planned Visit per Arm", "Class": "TRIAL DESIGN", "ArchiveLocationID": "LF.TV", "Description": {"TranslatedText": [{"lang": "en", "_content": "Trial Visits"}]}, "ItemRef": [{"ItemOID": "IT.STUDYID", "OrderNumber": 1, "Mandatory": "Yes", "KeySequence": 1}, {"ItemOID": "IT.TV.DOMAIN", "OrderNumber": 2, "Mandatory": "Yes"}, {"ItemOID": "IT.TV.VISITNUM", "OrderNumber": 3, "Mandatory": "Yes", "KeySequence": 2}, {"ItemOID": "IT.TV.VISIT", "OrderNumber": 4, "Mandatory": "No"}, {"ItemOID": "IT.TV.VISITDY", "OrderNumber": 5, "Mandatory": "No"}, {"ItemOID": "IT.TV.ARMCD", "OrderNumber": 6, "Mandatory": "No", "KeySequence": 3}, {"ItemOID": "IT.TV.TVSTRL", "OrderNumber": 7, "Mandatory": "Yes"}], "leaf": {"ID": "LF.TV", "href": "tv.xpt", "title": {"_content": "tv.xpt"}}}, {"OID": "IG.DM", "Domain": "DM", "Name": "DM", "Repeating": "No", "IsReferenceData": "No", "SASDatasetName": "DM", "Purpose": "Tabulation", "Structure": "One record per subject", "Class": "SPECIAL PURPOSE", "CommentOID": "COM.DOMAIN.DM", "ArchiveLocationID": "LF.DM", "Description": {"TranslatedText": [{"lang": "en", "_content": "Demographics"}]}, "ItemRef": [{"ItemOID": "IT.STUDYID", "OrderNumber": 1, "Mandatory": "Yes", "KeySequence": 1}, {"ItemOID": "IT.DM.DOMAIN", "OrderNumber": 2, "Mandatory": "Yes"}, {"ItemOID": "IT.USUBJID", "OrderNumber": 3, "Mandatory": "Yes", "KeySequence": 2, "MethodOID": "MT.USUBJID"}, {"ItemOID": "IT.DM.SUBJID", "OrderNumber": 4, "Mandatory": "Yes"}, {"ItemOID": "IT.DM.RFSTDTC", "OrderNumber": 5, "Mandatory": "No", "MethodOID": "MT.RFSTDTC"}, {"ItemOID": "IT.DM.RFENDTC", "OrderNumber": 6, "Mandatory": "No", "MethodOID": "MT.RFENDTC"}, {"ItemOID": "IT.DM.SITEID", "OrderNumber": 7, "Mandatory": "Yes"}, {"ItemOID": "IT.DM.BRTHDTC", "OrderNumber": 8, "Mandatory": "No"}, {"ItemOID": "IT.DM.AGE", "OrderNumber": 9, "Mandatory": "Yes", "MethodOID": "MT.AGE"}, {"ItemOID": "IT.DM.AGEU", "OrderNumber": 10, "Mandatory": "No"}, {"ItemOID": "IT.DM.SEX", "OrderNumber": 11, "Mandatory": "Yes"}, {"ItemOID": "IT.DM.RACE", "OrderNumber": 12, "Mandatory": "No"}, {"ItemOID": "IT.DM.ETHNIC", "OrderNumber": 13, "Mandatory": "Yes"}, {"ItemOID": "IT.DM.ARMCD", "OrderNumber": 14, "Mandatory": "Yes"}, {"ItemOID": "IT.DM.ARM", "OrderNumber": 15, "Mandatory": "Yes"}, {"ItemOID": "IT.DM.COUNTRY", "OrderNumber": 16, "Mandatory": "Yes"}], "leaf": {"ID": "LF.DM", "href": "dm.xpt", "title": {"_content": "dm.xpt"}}}, {"OID": "IG.SE", "Domain": "SE", "Name": "SE", "Repeating": "Yes", "IsReferenceData": "No", "SASDatasetName": "SE", "Purpose": "Tabulation", "Structure": "One record per actual Element per subject", "Class": "SPECIAL PURPOSE", "ArchiveLocationID": "LF.SE", "Description": {"TranslatedText": [{"lang": "en", "_content": "Subject Elements"}]}, "ItemRef": [{"ItemOID": "IT.STUDYID", "OrderNumber": 1, "Mandatory": "Yes", "KeySequence": 1}, {"ItemOID": "IT.SE.DOMAIN", "OrderNumber": 2, "Mandatory": "Yes"}, {"ItemOID": "IT.USUBJID", "OrderNumber": 3, "Mandatory": "Yes", "KeySequence": 2, "MethodOID": "MT.USUBJID"}, {"ItemOID": "IT.SE.SESEQ", "OrderNumber": 4, "Mandatory": "Yes", "MethodOID": "MT.SEQ"}, {"ItemOID": "IT.SE.ETCD", "OrderNumber": 5, "Mandatory": "Yes", "KeySequence": 6}, {"ItemOID": "IT.SE.ELEMENT", "OrderNumber": 6, "Mandatory": "No"}, {"ItemOID": "IT.SE.SESTDTC", "OrderNumber": 7, "Mandatory": "Yes", "KeySequence": 3, "MethodOID": "MT.SESTDTC"}, {"ItemOID": "IT.SE.SEENDTC", "OrderNumber": 8, "Mandatory": "No", "KeySequence": 4, "MethodOID": "MT.SEENDTC"}, {"ItemOID": "IT.SE.TAETORD", "OrderNumber": 9, "Mandatory": "No", "KeySequence": 5}], "leaf": {"ID": "LF.SE", "href": "se.xpt", "title": {"_content": "se.xpt"}}}, {"OID": "IG.SV", "Domain": "SV", "Name": "SV", "Repeating": "Yes", "IsReferenceData": "No", "SASDatasetName": "SV", "Purpose": "Tabulation", "Structure": "One record per actual visit per subject", "Class": "SPECIAL PURPOSE", "ArchiveLocationID": "LF.SV", "Description": {"TranslatedText": [{"lang": "en", "_content": "Subject Visits"}]}, "ItemRef": [{"ItemOID": "IT.STUDYID", "OrderNumber": 1, "Mandatory": "Yes", "KeySequence": 1}, {"ItemOID": "IT.SV.DOMAIN", "OrderNumber": 2, "Mandatory": "Yes"}, {"ItemOID": "IT.USUBJID", "OrderNumber": 3, "Mandatory": "Yes", "KeySequence": 2, "MethodOID": "MT.USUBJID"}, {"ItemOID": "IT.SV.VISITNUM", "OrderNumber": 4, "Mandatory": "Yes", "KeySequence": 4, "MethodOID": "MT.SV.VISITNUM"}, {"ItemOID": "IT.SV.VISIT", "OrderNumber": 5, "Mandatory": "No", "MethodOID": "MT.SV.VISIT"}, {"ItemOID": "IT.SV.VISITDY", "OrderNumber": 6, "Mandatory": "No"}, {"ItemOID": "IT.SV.SVSTDTC", "OrderNumber": 7, "Mandatory": "No", "KeySequence": 3, "MethodOID": "MT.SVSTDTC"}, {"ItemOID": "IT.SV.SVENDTC", "OrderNumber": 8, "Mandatory": "No", "MethodOID": "MT.SVENDTC"}, {"ItemOID": "IT.SV.SVSTDY", "OrderNumber": 9, "Mandatory": "No", "MethodOID": "MT.SVSTDY"}], "leaf": {"ID": "LF.SV", "href": "sv.xpt", "title": {"_content": "sv.xpt"}}}, {"OID": "IG.CM", "Domain": "CM", "Name": "CM", "Repeating": "Yes", "IsReferenceData": "No", "SASDatasetName": "CM", "Purpose": "Tabulation", "Structure": "One record per recorded medication occurrence or constant-dosing interval per subject", "Class": "INTERVENTIONS", "ArchiveLocationID": "LF.CM", "Description": {"TranslatedText": [{"lang": "en", "_content": "Concomitant Medications"}]}, "ItemRef": [{"ItemOID": "IT.STUDYID", "OrderNumber": 1, "Mandatory": "Yes", "KeySequence": 1}, {"ItemOID": "IT.CM.DOMAIN", "OrderNumber": 2, "Mandatory": "Yes"}, {"ItemOID": "IT.USUBJID", "OrderNumber": 3, "Mandatory": "Yes", "KeySequence": 2, "MethodOID": "MT.USUBJID"}, {"ItemOID": "IT.CM.CMSEQ", "OrderNumber": 4, "Mandatory": "Yes", "MethodOID": "MT.SEQ"}, {"ItemOID": "IT.CM.CMTRT", "OrderNumber": 5, "Mandatory": "Yes", "KeySequence": 6}, {"ItemOID": "IT.CM.CMMODIFY", "OrderNumber": 6, "Mandatory": "No"}, {"ItemOID": "IT.CM.CMDECOD", "OrderNumber": 7, "Mandatory": "No"}, {"ItemOID": "IT.CM.CMCAT", "OrderNumber": 8, "Mandatory": "No", "KeySequence": 5}, {"ItemOID": "IT.CM.CMINDC", "OrderNumber": 9, "Mandatory": "No", "KeySequence": 9}, {"ItemOID": "IT.CM.CMCLAS", "OrderNumber": 10, "Mandatory": "No"}, {"ItemOID": "IT.CM.CMCLASCD", "OrderNumber": 11, "Mandatory": "No"}, {"ItemOID": "IT.CM.CMDOSTXT", "OrderNumber": 12, "Mandatory": "No", "KeySequence": 7}, {"ItemOID": "IT.CM.CMDOSU", "OrderNumber": 13, "Mandatory": "No", "KeySequence": 8}, {"ItemOID": "IT.CM.CMDOSFRQ", "OrderNumber": 14, "Mandatory": "No", "KeySequence": 10}, {"ItemOID": "IT.CM.CMROUTE", "OrderNumber": 15, "Mandatory": "No"}, {"ItemOID": "IT.CM.CMSTDTC", "OrderNumber": 16, "Mandatory": "No", "KeySequence": 3}, {"ItemOID": "IT.CM.CMENDTC", "OrderNumber": 17, "Mandatory": "No", "KeySequence": 4}, {"ItemOID": "IT.CM.CMSTDY", "OrderNumber": 18, "Mandatory": "No", "MethodOID": "MT.CMSTDY"}, {"ItemOID": "IT.CM.CMENDY", "OrderNumber": 19, "Mandatory": "No", "MethodOID": "MT.CMENDY"}, {"ItemOID": "IT.CM.CMENRF", "OrderNumber": 20, "Mandatory": "No"}], "leaf": {"ID": "LF.CM", "href": "cm.xpt", "title": {"_content": "cm.xpt"}}}, {"OID": "IG.EX", "Domain": "EX", "Name": "EX", "Repeating": "Yes", "IsReferenceData": "No", "SASDatasetName": "EX", "Purpose": "Tabulation", "Structure": "One record per constant dosing interval per subject", "Class": "INTERVENTIONS", "ArchiveLocationID": "LF.EX", "Description": {"TranslatedText": [{"lang": "en", "_content": "Exposure"}]}, "ItemRef": [{"ItemOID": "IT.STUDYID", "OrderNumber": 1, "Mandatory": "Yes", "KeySequence": 1}, {"ItemOID": "IT.EX.DOMAIN", "OrderNumber": 2, "Mandatory": "Yes"}, {"ItemOID": "IT.USUBJID", "OrderNumber": 3, "Mandatory": "Yes", "KeySequence": 2, "MethodOID": "MT.USUBJID"}, {"ItemOID": "IT.EX.EXSEQ", "OrderNumber": 4, "Mandatory": "Yes", "MethodOID": "MT.SEQ"}, {"ItemOID": "IT.EX.EXTRT", "OrderNumber": 5, "Mandatory": "Yes", "KeySequence": 5, "MethodOID": "MT.EXTRT"}, {"ItemOID": "IT.EX.EXDOSE", "OrderNumber": 6, "Mandatory": "No", "KeySequence": 6, "MethodOID": "MT.EXDOSE"}, {"ItemOID": "IT.EX.EXDOSU", "OrderNumber": 7, "Mandatory": "No", "MethodOID": "MT.EXDOSU"}, {"ItemOID": "IT.EX.EXDOSFRM", "OrderNumber": 8, "Mandatory": "No"}, {"ItemOID": "IT.EX.EXSTDTC", "OrderNumber": 9, "Mandatory": "No", "KeySequence": 3}, {"ItemOID": "IT.EX.EXENDTC", "OrderNumber": 10, "Mandatory": "No", "KeySequence": 4}, {"ItemOID": "IT.EX.EXSTDY", "OrderNumber": 11, "Mandatory": "No", "MethodOID": "MT.EXSTDY"}, {"ItemOID": "IT.EX.EXENDY", "OrderNumber": 12, "Mandatory": "No", "MethodOID": "MT.EXENDY"}], "leaf": {"ID": "LF.EX", "href": "ex.xpt", "title": {"_content": "ex.xpt"}}}, {"OID": "IG.AE", "Domain": "AE", "Name": "AE", "Repeating": "Yes", "IsReferenceData": "No", "SASDatasetName": "AE", "Purpose": "Tabulation", "Structure": "One record per adverse event per subject", "Class": "EVENTS", "ArchiveLocationID": "LF.AE", "Description": {"TranslatedText": [{"lang": "en", "_content": "Adverse Events"}]}, "ItemRef": [{"ItemOID": "IT.STUDYID", "OrderNumber": 1, "Mandatory": "Yes", "KeySequence": 1}, {"ItemOID": "IT.AE.DOMAIN", "OrderNumber": 2, "Mandatory": "Yes"}, {"ItemOID": "IT.USUBJID", "OrderNumber": 3, "Mandatory": "Yes", "KeySequence": 2, "MethodOID": "MT.USUBJID"}, {"ItemOID": "IT.AE.AESEQ", "OrderNumber": 4, "Mandatory": "Yes", "MethodOID": "MT.SEQ"}, {"ItemOID": "IT.AE.AESPID", "OrderNumber": 5, "Mandatory": "No"}, {"ItemOID": "IT.AE.AETERM", "OrderNumber": 6, "Mandatory": "Yes"}, {"ItemOID": "IT.AE.AEMODIFY", "OrderNumber": 7, "Mandatory": "No"}, {"ItemOID": "IT.AE.AEDECOD", "OrderNumber": 8, "Mandatory": "Yes", "KeySequence": 3}, {"ItemOID": "IT.AE.AEBODSYS", "OrderNumber": 9, "Mandatory": "No"}, {"ItemOID": "IT.AE.AESEV", "OrderNumber": 10, "Mandatory": "Yes"}, {"ItemOID": "IT.AE.AESER", "OrderNumber": 11, "Mandatory": "Yes"}, {"ItemOID": "IT.AE.AEACN", "OrderNumber": 12, "Mandatory": "Yes"}, {"ItemOID": "IT.AE.AEREL", "OrderNumber": 13, "Mandatory": "Yes"}, {"ItemOID": "IT.AE.AESTDTC", "OrderNumber": 14, "Mandatory": "No", "KeySequence": 4}, {"ItemOID": "IT.AE.AEENDTC", "OrderNumber": 15, "Mandatory": "No"}, {"ItemOID": "IT.AE.AESTDY", "OrderNumber": 16, "Mandatory": "No", "MethodOID": "MT.AESTDY"}, {"ItemOID": "IT.AE.AEENDY", "OrderNumber": 17, "Mandatory": "No", "MethodOID": "MT.AEENDY"}, {"ItemOID": "IT.AE.AEENRF", "OrderNumber": 18, "Mandatory": "No"}], "leaf": {"ID": "LF.AE", "href": "ae.xpt", "title": {"_content": "ae.xpt"}}}, {"OID": "IG.DS", "Domain": "DS", "Name": "DS", "Repeating": "Yes", "IsReferenceData": "No", "SASDatasetName": "DS", "Purpose": "Tabulation", "Structure": "One record per disposition status or protocol milestone per subject", "Class": "EVENTS", "ArchiveLocationID": "LF.DS", "Description": {"TranslatedText": [{"lang": "en", "_content": "Disposition"}]}, "ItemRef": [{"ItemOID": "IT.STUDYID", "OrderNumber": 1, "Mandatory": "Yes", "KeySequence": 1}, {"ItemOID": "IT.DS.DOMAIN", "OrderNumber": 2, "Mandatory": "Yes"}, {"ItemOID": "IT.USUBJID", "OrderNumber": 3, "Mandatory": "Yes", "KeySequence": 2, "MethodOID": "MT.USUBJID"}, {"ItemOID": "IT.DS.DSSEQ", "OrderNumber": 4, "Mandatory": "Yes", "MethodOID": "MT.SEQ"}, {"ItemOID": "IT.DS.DSTERM", "OrderNumber": 5, "Mandatory": "Yes"}, {"ItemOID": "IT.DS.DSDECOD", "OrderNumber": 6, "Mandatory": "Yes", "KeySequence": 6}, {"ItemOID": "IT.DS.DSCAT", "OrderNumber": 7, "Mandatory": "No", "KeySequence": 5}, {"ItemOID": "IT.DS.EPOCH", "OrderNumber": 8, "Mandatory": "No"}, {"ItemOID": "IT.DS.DSSTDTC", "OrderNumber": 9, "Mandatory": "No", "KeySequence": 4}, {"ItemOID": "IT.DS.DSSTDY", "OrderNumber": 10, "Mandatory": "No", "KeySequence": 3, "MethodOID": "MT.DSSTDY"}], "leaf": {"ID": "LF.DS", "href": "ds.xpt", "title": {"_content": "ds.xpt"}}}, {"OID": "IG.MH", "Domain": "MH", "Name": "MH", "Repeating": "Yes", "IsReferenceData": "No", "SASDatasetName": "MH", "Purpose": "Tabulation", "Structure": "One record per medical history event per subject", "Class": "EVENTS", "ArchiveLocationID": "LF.MH", "Description": {"TranslatedText": [{"lang": "en", "_content": "Medical History"}]}, "ItemRef": [{"ItemOID": "IT.STUDYID", "OrderNumber": 1, "Mandatory": "Yes", "KeySequence": 1}, {"ItemOID": "IT.MH.DOMAIN", "OrderNumber": 2, "Mandatory": "Yes"}, {"ItemOID": "IT.USUBJID", "OrderNumber": 3, "Mandatory": "Yes", "KeySequence": 2, "MethodOID": "MT.USUBJID"}, {"ItemOID": "IT.MH.MHSEQ", "OrderNumber": 4, "Mandatory": "Yes", "MethodOID": "MT.SEQ"}, {"ItemOID": "IT.MH.MHTERM", "OrderNumber": 5, "Mandatory": "Yes", "KeySequence": 4}, {"ItemOID": "IT.MH.MHCAT", "OrderNumber": 6, "Mandatory": "No", "KeySequence": 3}, {"ItemOID": "IT.MH.MHPRESP", "OrderNumber": 7, "Mandatory": "No"}, {"ItemOID": "IT.MH.MHOCCUR", "OrderNumber": 8, "Mandatory": "No"}, {"ItemOID": "IT.MH.MHBODSYS", "OrderNumber": 9, "Mandatory": "No"}, {"ItemOID": "IT.MH.MHDTC", "OrderNumber": 10, "Mandatory": "No", "KeySequence": 5}, {"ItemOID": "IT.MH.MHSTDTC", "OrderNumber": 11, "Mandatory": "No", "KeySequence": 6}, {"ItemOID": "IT.MH.MHENRF", "OrderNumber": 12, "Mandatory": "No"}], "leaf": {"ID": "LF.MH", "href": "mh.xpt", "title": {"_content": "mh.xpt"}}}, {"OID": "IG.DA", "Domain": "DA", "Name": "DA", "Repeating": "Yes", "IsReferenceData": "No", "SASDatasetName": "DA", "Purpose": "Tabulation", "Structure": "One record per drug accountability finding per subject", "Class": "FINDINGS", "ArchiveLocationID": "LF.DA", "Description": {"TranslatedText": [{"lang": "en", "_content": "Drug Accountability"}]}, "ItemRef": [{"ItemOID": "IT.STUDYID", "OrderNumber": 1, "Mandatory": "Yes", "KeySequence": 1}, {"ItemOID": "IT.DA.DOMAIN", "OrderNumber": 2, "Mandatory": "Yes"}, {"ItemOID": "IT.USUBJID", "OrderNumber": 3, "Mandatory": "Yes", "KeySequence": 2, "MethodOID": "MT.USUBJID"}, {"ItemOID": "IT.DA.DASEQ", "OrderNumber": 4, "Mandatory": "Yes", "MethodOID": "MT.SEQ"}, {"ItemOID": "IT.DA.DATESTCD", "OrderNumber": 5, "Mandatory": "Yes", "KeySequence": 3}, {"ItemOID": "IT.DA.DATEST", "OrderNumber": 6, "Mandatory": "Yes"}, {"ItemOID": "IT.DA.DAORRES", "OrderNumber": 7, "Mandatory": "No"}, {"ItemOID": "IT.DA.DAORRESU", "OrderNumber": 8, "Mandatory": "No"}, {"ItemOID": "IT.DA.DASTRESC", "OrderNumber": 9, "Mandatory": "No", "MethodOID": "MT.DASTRESC"}, {"ItemOID": "IT.DA.DASTRESN", "OrderNumber": 10, "Mandatory": "No", "MethodOID": "MT.DASTRESN"}, {"ItemOID": "IT.DA.DASTRESU", "OrderNumber": 11, "Mandatory": "No", "MethodOID": "MT.DASTRESU"}, {"ItemOID": "IT.DA.VISITNUM", "OrderNumber": 12, "Mandatory": "No", "MethodOID": "MT.DA.VISITNUM"}, {"ItemOID": "IT.DA.VISIT", "OrderNumber": 13, "Mandatory": "No"}, {"ItemOID": "IT.DA.VISITDY", "OrderNumber": 14, "Mandatory": "No"}, {"ItemOID": "IT.DA.DADTC", "OrderNumber": 15, "Mandatory": "No", "KeySequence": 4}, {"ItemOID": "IT.DA.DADY", "OrderNumber": 16, "Mandatory": "No", "MethodOID": "MT.DADY"}], "leaf": {"ID": "LF.DA", "href": "da.xpt", "title": {"_content": "da.xpt"}}}, {"OID": "IG.EG", "Domain": "EG", "Name": "EG", "Repeating": "Yes", "IsReferenceData": "No", "SASDatasetName": "EG", "Purpose": "Tabulation", "Structure": "One record per ECG observation per visit per subject", "Class": "FINDINGS", "ArchiveLocationID": "LF.EG", "Description": {"TranslatedText": [{"lang": "en", "_content": "ECG Test Results"}]}, "ItemRef": [{"ItemOID": "IT.STUDYID", "OrderNumber": 1, "Mandatory": "Yes", "KeySequence": 1}, {"ItemOID": "IT.EG.DOMAIN", "OrderNumber": 2, "Mandatory": "Yes"}, {"ItemOID": "IT.USUBJID", "OrderNumber": 3, "Mandatory": "Yes", "KeySequence": 2, "MethodOID": "MT.USUBJID"}, {"ItemOID": "IT.EG.EGSEQ", "OrderNumber": 4, "Mandatory": "Yes", "MethodOID": "MT.SEQ"}, {"ItemOID": "IT.EG.EGSPID", "OrderNumber": 5, "Mandatory": "No"}, {"ItemOID": "IT.EG.EGTESTCD", "OrderNumber": 6, "Mandatory": "Yes", "KeySequence": 3}, {"ItemOID": "IT.EG.EGTEST", "OrderNumber": 7, "Mandatory": "Yes"}, {"ItemOID": "IT.EG.EGPOS", "OrderNumber": 8, "Mandatory": "No"}, {"ItemOID": "IT.EG.EGORRES", "OrderNumber": 9, "Mandatory": "No"}, {"ItemOID": "IT.EG.EGORRESU", "OrderNumber": 10, "Mandatory": "No"}, {"ItemOID": "IT.EG.EGSTRESC", "OrderNumber": 11, "Mandatory": "No", "MethodOID": "MT.EGSTRESC"}, {"ItemOID": "IT.EG.EGSTRESN", "OrderNumber": 12, "Mandatory": "No", "MethodOID": "MT.EGSTRESN"}, {"ItemOID": "IT.EG.EGSTRESU", "OrderNumber": 13, "Mandatory": "No"}, {"ItemOID": "IT.EG.EGBLFL", "OrderNumber": 14, "Mandatory": "No", "MethodOID": "MT.EGBLFL"}, {"ItemOID": "IT.EG.EGDRVFL", "OrderNumber": 15, "Mandatory": "No", "MethodOID": "MT.EGDRVFL"}, {"ItemOID": "IT.EG.EGEVAL", "OrderNumber": 16, "Mandatory": "No"}, {"ItemOID": "IT.EG.VISITNUM", "OrderNumber": 17, "Mandatory": "No", "KeySequence": 5}, {"ItemOID": "IT.EG.VISIT", "OrderNumber": 18, "Mandatory": "No"}, {"ItemOID": "IT.EG.VISITDY", "OrderNumber": 19, "Mandatory": "No"}, {"ItemOID": "IT.EG.EGDTC", "OrderNumber": 20, "Mandatory": "No", "KeySequence": 4}, {"ItemOID": "IT.EG.EGDY", "OrderNumber": 21, "Mandatory": "No", "MethodOID": "MT.EGDY"}], "leaf": {"ID": "LF.EG", "href": "eg.xpt", "title": {"_content": "eg.xpt"}}}, {"OID": "IG.IE", "Domain": "IE", "Name": "IE", "Repeating": "Yes", "IsReferenceData": "No", "SASDatasetName": "IE", "Purpose": "Tabulation", "Structure": "One record per inclusion/exclusion criterion not met per subject", "Class": "FINDINGS", "ArchiveLocationID": "LF.IE", "Description": {"TranslatedText": [{"lang": "en", "_content": "Inclusion/Exclusion Criteria Not Met"}]}, "ItemRef": [{"ItemOID": "IT.STUDYID", "OrderNumber": 1, "Mandatory": "Yes", "KeySequence": 1}, {"ItemOID": "IT.IE.DOMAIN", "OrderNumber": 2, "Mandatory": "Yes"}, {"ItemOID": "IT.USUBJID", "OrderNumber": 3, "Mandatory": "Yes", "KeySequence": 2, "MethodOID": "MT.USUBJID"}, {"ItemOID": "IT.IE.IESEQ", "OrderNumber": 4, "Mandatory": "Yes", "MethodOID": "MT.SEQ"}, {"ItemOID": "IT.IE.IETESTCD", "OrderNumber": 5, "Mandatory": "Yes", "KeySequence": 3}, {"ItemOID": "IT.IE.IETEST", "OrderNumber": 6, "Mandatory": "Yes"}, {"ItemOID": "IT.IE.IECAT", "OrderNumber": 7, "Mandatory": "Yes"}, {"ItemOID": "IT.IE.IEORRES", "OrderNumber": 8, "Mandatory": "Yes"}, {"ItemOID": "IT.IE.IESTRESC", "OrderNumber": 9, "Mandatory": "Yes", "MethodOID": "MT.IESTRESC"}, {"ItemOID": "IT.IE.VISITNUM", "OrderNumber": 10, "Mandatory": "No"}, {"ItemOID": "IT.IE.VISIT", "OrderNumber": 11, "Mandatory": "No"}, {"ItemOID": "IT.IE.IEDTC", "OrderNumber": 12, "Mandatory": "No"}], "leaf": {"ID": "LF.IE", "href": "ie.xpt", "title": {"_content": "ie.xpt"}}}, {"OID": "IG.LB", "Domain": "LB", "Name": "LB", "Repeating": "Yes", "IsReferenceData": "No", "SASDatasetName": "LB", "Purpose": "Tabulation", "Structure": "One record per analyte per visit per subject", "Class": "FINDINGS", "ArchiveLocationID": "LF.LB", "Description": {"TranslatedText": [{"lang": "en", "_content": "Laboratory Tests Results"}]}, "ItemRef": [{"ItemOID": "IT.STUDYID", "OrderNumber": 1, "Mandatory": "Yes", "KeySequence": 1}, {"ItemOID": "IT.LB.DOMAIN", "OrderNumber": 2, "Mandatory": "Yes"}, {"ItemOID": "IT.USUBJID", "OrderNumber": 3, "Mandatory": "Yes", "KeySequence": 2, "MethodOID": "MT.USUBJID"}, {"ItemOID": "IT.LB.LBSEQ", "OrderNumber": 4, "Mandatory": "Yes", "MethodOID": "MT.SEQ"}, {"ItemOID": "IT.LB.LBREFID", "OrderNumber": 5, "Mandatory": "No"}, {"ItemOID": "IT.LB.LBTESTCD", "OrderNumber": 6, "Mandatory": "Yes", "KeySequence": 5}, {"ItemOID": "IT.LB.LBTEST", "OrderNumber": 7, "Mandatory": "Yes"}, {"ItemOID": "IT.LB.LBCAT", "OrderNumber": 8, "Mandatory": "No", "KeySequence": 3}, {"ItemOID": "IT.LB.LBORRES", "OrderNumber": 9, "Mandatory": "No"}, {"ItemOID": "IT.LB.LBORRESU", "OrderNumber": 10, "Mandatory": "No"}, {"ItemOID": "IT.LB.LBORNRLO", "OrderNumber": 11, "Mandatory": "No"}, {"ItemOID": "IT.LB.LBORNRHI", "OrderNumber": 12, "Mandatory": "No"}, {"ItemOID": "IT.LB.LBSTRESC", "OrderNumber": 13, "Mandatory": "No"}, {"ItemOID": "IT.LB.LBSTRESN", "OrderNumber": 14, "Mandatory": "No"}, {"ItemOID": "IT.LB.LBSTRESU", "OrderNumber": 15, "Mandatory": "No"}, {"ItemOID": "IT.LB.LBSTNRLO", "OrderNumber": 16, "Mandatory": "No"}, {"ItemOID": "IT.LB.LBSTNRHI", "OrderNumber": 17, "Mandatory": "No"}, {"ItemOID": "IT.LB.LBSTNRC", "OrderNumber": 18, "Mandatory": "No"}, {"ItemOID": "IT.LB.LBNRIND", "OrderNumber": 19, "Mandatory": "No", "MethodOID": "MT.LBNRIND"}, {"ItemOID": "IT.LB.LBSPEC", "OrderNumber": 20, "Mandatory": "No"}, {"ItemOID": "IT.LB.LBMETHOD", "OrderNumber": 21, "Mandatory": "No", "KeySequence": 4}, {"ItemOID": "IT.LB.LBBLFL", "OrderNumber": 22, "Mandatory": "No", "MethodOID": "MT.LBBLFL"}, {"ItemOID": "IT.LB.LBFAST", "OrderNumber": 23, "Mandatory": "No"}, {"ItemOID": "IT.LB.VISITNUM", "OrderNumber": 24, "Mandatory": "No", "KeySequence": 7}, {"ItemOID": "IT.LB.VISIT", "OrderNumber": 25, "Mandatory": "No"}, {"ItemOID": "IT.LB.VISITDY", "OrderNumber": 26, "Mandatory": "No"}, {"ItemOID": "IT.LB.LBDTC", "OrderNumber": 27, "Mandatory": "No", "KeySequence": 6}, {"ItemOID": "IT.LB.LBDY", "OrderNumber": 28, "Mandatory": "No", "MethodOID": "MT.LBDY"}], "leaf": {"ID": "LF.LB", "href": "lb.xpt", "title": {"_content": "lb.xpt"}}}, {"OID": "IG.PE", "Domain": "PE", "Name": "PE", "Repeating": "Yes", "IsReferenceData": "No", "SASDatasetName": "PE", "Purpose": "Tabulation", "Structure": "One record per body system or abnormality per visit per subject", "Class": "FINDINGS", "ArchiveLocationID": "LF.PE", "Description": {"TranslatedText": [{"lang": "en", "_content": "Physical Examination"}]}, "ItemRef": [{"ItemOID": "IT.STUDYID", "OrderNumber": 1, "Mandatory": "Yes", "KeySequence": 1}, {"ItemOID": "IT.PE.DOMAIN", "OrderNumber": 2, "Mandatory": "Yes"}, {"ItemOID": "IT.USUBJID", "OrderNumber": 3, "Mandatory": "Yes", "KeySequence": 2, "MethodOID": "MT.USUBJID"}, {"ItemOID": "IT.PE.PESEQ", "OrderNumber": 4, "Mandatory": "Yes", "MethodOID": "MT.SEQ"}, {"ItemOID": "IT.PE.PETESTCD", "OrderNumber": 5, "Mandatory": "Yes", "KeySequence": 3}, {"ItemOID": "IT.PE.PETEST", "OrderNumber": 6, "Mandatory": "Yes"}, {"ItemOID": "IT.PE.PEORRES", "OrderNumber": 7, "Mandatory": "No"}, {"ItemOID": "IT.PE.PESTRESC", "OrderNumber": 8, "Mandatory": "No", "MethodOID": "MT.PESTRESC"}, {"ItemOID": "IT.PE.VISITNUM", "OrderNumber": 9, "Mandatory": "No", "KeySequence": 5}, {"ItemOID": "IT.PE.VISIT", "OrderNumber": 10, "Mandatory": "No"}, {"ItemOID": "IT.PE.VISITDY", "OrderNumber": 11, "Mandatory": "No"}, {"ItemOID": "IT.PE.PEDTC", "OrderNumber": 12, "Mandatory": "No", "KeySequence": 4}, {"ItemOID": "IT.PE.PEDY", "OrderNumber": 13, "Mandatory": "No", "MethodOID": "MT.PEDY"}], "leaf": {"ID": "LF.PE", "href": "pe.xpt", "title": {"_content": "pe.xpt"}}}, {"OID": "IG.QSCG", "Domain": "QS", "Name": "QSCG", "Repeating": "Yes", "IsReferenceData": "No", "SASDatasetName": "QSCG", "Purpose": "Tabulation", "Structure": "One record per questionnaire per question per visit per subject", "Class": "FINDINGS", "CommentOID": "COM.DOMAIN.QS", "ArchiveLocationID": "LF.QSCG", "Description": {"TranslatedText": [{"lang": "en", "_content": "Questionnaire-QSCG"}]}, "ItemRef": [{"ItemOID": "IT.STUDYID", "OrderNumber": 1, "Mandatory": "Yes", "KeySequence": 1}, {"ItemOID": "IT.QS.DOMAIN", "OrderNumber": 2, "Mandatory": "Yes"}, {"ItemOID": "IT.USUBJID", "OrderNumber": 3, "Mandatory": "Yes", "KeySequence": 2, "MethodOID": "MT.USUBJID"}, {"ItemOID": "IT.QS.QSSEQ", "OrderNumber": 4, "Mandatory": "Yes", "MethodOID": "MT.SEQ"}, {"ItemOID": "IT.QS.QSTESTCD", "OrderNumber": 5, "Mandatory": "Yes", "KeySequence": 4}, {"ItemOID": "IT.QS.QSTEST", "OrderNumber": 6, "Mandatory": "Yes"}, {"ItemOID": "IT.QS.QSCAT", "OrderNumber": 7, "Mandatory": "Yes", "KeySequence": 3}, {"ItemOID": "IT.QS.QSORRES", "OrderNumber": 9, "Mandatory": "No"}, {"ItemOID": "IT.QS.QSSTRESC", "OrderNumber": 10, "Mandatory": "No", "MethodOID": "MT.QSSTRESC"}, {"ItemOID": "IT.QS.QSSTRESN", "OrderNumber": 11, "Mandatory": "No", "MethodOID": "MT.QSSTRESN"}, {"ItemOID": "IT.QS.VISITNUM", "OrderNumber": 13, "Mandatory": "No", "KeySequence": 6}, {"ItemOID": "IT.QS.VISIT", "OrderNumber": 14, "Mandatory": "No"}, {"ItemOID": "IT.QS.VISITDY", "OrderNumber": 15, "Mandatory": "No"}, {"ItemOID": "IT.QS.QSDTC", "OrderNumber": 16, "Mandatory": "No", "KeySequence": 5}, {"ItemOID": "IT.QS.QSDY", "OrderNumber": 17, "Mandatory": "No", "MethodOID": "MT.QSDY"}], "Alias": [{"Context": "DomainDescription", "Name": "Questionnaires"}], "leaf": {"ID": "LF.QSCG", "href": "qscg.xpt", "title": {"_content": "qscg.xpt"}}}, {"OID": "IG.QSCS", "Domain": "QS", "Name": "QSCS", "Repeating": "Yes", "IsReferenceData": "No", "SASDatasetName": "QSCS", "Purpose": "Tabulation", "Structure": "One record per questionnaire per question per visit per subject", "Class": "FINDINGS", "CommentOID": "COM.DOMAIN.QS", "ArchiveLocationID": "LF.QSCS", "Description": {"TranslatedText": [{"lang": "en", "_content": "Questionnaire-QSCS"}]}, "ItemRef": [{"ItemOID": "IT.STUDYID", "OrderNumber": 1, "Mandatory": "Yes", "KeySequence": 1}, {"ItemOID": "IT.QS.DOMAIN", "OrderNumber": 2, "Mandatory": "Yes"}, {"ItemOID": "IT.USUBJID", "OrderNumber": 3, "Mandatory": "Yes", "KeySequence": 2, "MethodOID": "MT.USUBJID"}, {"ItemOID": "IT.QS.QSSEQ", "OrderNumber": 4, "Mandatory": "Yes", "MethodOID": "MT.SEQ"}, {"ItemOID": "IT.QS.QSTESTCD", "OrderNumber": 5, "Mandatory": "Yes", "KeySequence": 4}, {"ItemOID": "IT.QS.QSTEST", "OrderNumber": 6, "Mandatory": "Yes"}, {"ItemOID": "IT.QS.QSCAT", "OrderNumber": 7, "Mandatory": "Yes", "KeySequence": 3}, {"ItemOID": "IT.QS.QSSCAT", "OrderNumber": 8, "Mandatory": "No"}, {"ItemOID": "IT.QS.QSORRES", "OrderNumber": 9, "Mandatory": "No"}, {"ItemOID": "IT.QS.QSSTRESC", "OrderNumber": 10, "Mandatory": "No", "MethodOID": "MT.QSSTRESC"}, {"ItemOID": "IT.QS.QSSTRESN", "OrderNumber": 11, "Mandatory": "No", "MethodOID": "MT.QSSTRESN"}, {"ItemOID": "IT.QS.QSBLFL", "OrderNumber": 12, "Mandatory": "No", "MethodOID": "MT.QSBLFL"}, {"ItemOID": "IT.QS.VISITNUM", "OrderNumber": 13, "Mandatory": "No", "KeySequence": 6}, {"ItemOID": "IT.QS.VISIT", "OrderNumber": 14, "Mandatory": "No"}, {"ItemOID": "IT.QS.VISITDY", "OrderNumber": 15, "Mandatory": "No"}, {"ItemOID": "IT.QS.QSDTC", "OrderNumber": 16, "Mandatory": "No", "KeySequence": 5}, {"ItemOID": "IT.QS.QSDY", "OrderNumber": 17, "Mandatory": "No", "MethodOID": "MT.QSDY"}, {"ItemOID": "IT.QS.QSEVLINT", "OrderNumber": 18, "Mandatory": "No"}], "Alias": [{"Context": "DomainDescription", "Name": "Questionnaires"}], "leaf": {"ID": "LF.QSCS", "href": "qscs.xpt", "title": {"_content": "qscs.xpt"}}}, {"OID": "IG.QSMM", "Domain": "QS", "Name": "QSMM", "Repeating": "Yes", "IsReferenceData": "No", "SASDatasetName": "QSMM", "Purpose": "Tabulation", "Structure": "One record per questionnaire per question per visit per subject", "Class": "FINDINGS", "CommentOID": "COM.DOMAIN.QS", "ArchiveLocationID": "LF.QSMM", "Description": {"TranslatedText": [{"lang": "en", "_content": "Questionnaire-QSMM"}]}, "ItemRef": [{"ItemOID": "IT.STUDYID", "OrderNumber": 1, "Mandatory": "Yes", "KeySequence": 1}, {"ItemOID": "IT.QS.DOMAIN", "OrderNumber": 2, "Mandatory": "Yes"}, {"ItemOID": "IT.USUBJID", "OrderNumber": 3, "Mandatory": "Yes", "KeySequence": 2, "MethodOID": "MT.USUBJID"}, {"ItemOID": "IT.QS.QSSEQ", "OrderNumber": 4, "Mandatory": "Yes", "MethodOID": "MT.SEQ"}, {"ItemOID": "IT.QS.QSTESTCD", "OrderNumber": 5, "Mandatory": "Yes", "KeySequence": 4}, {"ItemOID": "IT.QS.QSTEST", "OrderNumber": 6, "Mandatory": "Yes"}, {"ItemOID": "IT.QS.QSCAT", "OrderNumber": 7, "Mandatory": "Yes", "KeySequence": 3}, {"ItemOID": "IT.QS.QSORRES", "OrderNumber": 9, "Mandatory": "No"}, {"ItemOID": "IT.QS.QSSTRESC", "OrderNumber": 10, "Mandatory": "No", "MethodOID": "MT.QSSTRESC"}, {"ItemOID": "IT.QS.QSSTRESN", "OrderNumber": 11, "Mandatory": "No", "MethodOID": "MT.QSSTRESN"}, {"ItemOID": "IT.QS.QSBLFL", "OrderNumber": 12, "Mandatory": "No", "MethodOID": "MT.QSBLFL"}, {"ItemOID": "IT.QS.VISITNUM", "OrderNumber": 13, "Mandatory": "No", "KeySequence": 6}, {"ItemOID": "IT.QS.VISIT", "OrderNumber": 14, "Mandatory": "No"}, {"ItemOID": "IT.QS.VISITDY", "OrderNumber": 15, "Mandatory": "No"}, {"ItemOID": "IT.QS.QSDTC", "OrderNumber": 16, "Mandatory": "No", "KeySequence": 5}, {"ItemOID": "IT.QS.QSDY", "OrderNumber": 17, "Mandatory": "No", "MethodOID": "MT.QSDY"}], "Alias": [{"Context": "DomainDescription", "Name": "Questionnaires"}], "leaf": {"ID": "LF.QSMM", "href": "qsmm.xpt", "title": {"_content": "qsmm.xpt"}}}, {"OID": "IG.SC", "Domain": "SC", "Name": "SC", "Repeating": "No", "IsReferenceData": "No", "SASDatasetName": "SC", "Purpose": "Tabulation", "Structure": "One record per characteristic per subject", "Class": "FINDINGS", "ArchiveLocationID": "LF.SC", "Description": {"TranslatedText": [{"lang": "en", "_content": "Subject Characteristics"}]}, "ItemRef": [{"ItemOID": "IT.STUDYID", "OrderNumber": 1, "Mandatory": "Yes", "KeySequence": 1}, {"ItemOID": "IT.SC.DOMAIN", "OrderNumber": 2, "Mandatory": "Yes"}, {"ItemOID": "IT.USUBJID", "OrderNumber": 3, "Mandatory": "Yes", "KeySequence": 2, "MethodOID": "MT.USUBJID"}, {"ItemOID": "IT.SC.SCSEQ", "OrderNumber": 4, "Mandatory": "Yes", "MethodOID": "MT.SEQ"}, {"ItemOID": "IT.SC.SCTESTCD", "OrderNumber": 5, "Mandatory": "Yes", "KeySequence": 3}, {"ItemOID": "IT.SC.SCTEST", "OrderNumber": 6, "Mandatory": "Yes"}, {"ItemOID": "IT.SC.SCORRES", "OrderNumber": 7, "Mandatory": "No"}, {"ItemOID": "IT.SC.SCSTRESC", "OrderNumber": 8, "Mandatory": "No", "MethodOID": "MT.SCSTRESC"}, {"ItemOID": "IT.SC.SCDTC", "OrderNumber": 9, "Mandatory": "No"}, {"ItemOID": "IT.SC.SCDY", "OrderNumber": 10, "Mandatory": "No", "MethodOID": "MT.SCDY"}], "leaf": {"ID": "LF.SC", "href": "sc.xpt", "title": {"_content": "sc.xpt"}}}, {"OID": "IG.VS", "Domain": "VS", "Name": "VS", "Repeating": "Yes", "IsReferenceData": "No", "SASDatasetName": "VS", "Purpose": "Tabulation", "Structure": "One record per vital sign measurement per visit per subject", "Class": "FINDINGS", "ArchiveLocationID": "LF.VS", "Description": {"TranslatedText": [{"lang": "en", "_content": "Vital Signs"}]}, "ItemRef": [{"ItemOID": "IT.STUDYID", "OrderNumber": 1, "Mandatory": "Yes", "KeySequence": 1}, {"ItemOID": "IT.VS.DOMAIN", "OrderNumber": 2, "Mandatory": "Yes"}, {"ItemOID": "IT.USUBJID", "OrderNumber": 3, "Mandatory": "Yes", "KeySequence": 2, "MethodOID": "MT.USUBJID"}, {"ItemOID": "IT.VS.VSSEQ", "OrderNumber": 4, "Mandatory": "Yes", "MethodOID": "MT.SEQ"}, {"ItemOID": "IT.VS.VSTESTCD", "OrderNumber": 5, "Mandatory": "Yes", "KeySequence": 3}, {"ItemOID": "IT.VS.VSTEST", "OrderNumber": 6, "Mandatory": "Yes"}, {"ItemOID": "IT.VS.VSPOS", "OrderNumber": 7, "Mandatory": "No", "KeySequence": 6}, {"ItemOID": "IT.VS.VSORRES", "OrderNumber": 8, "Mandatory": "No"}, {"ItemOID": "IT.VS.VSORRESU", "OrderNumber": 9, "Mandatory": "No"}, {"ItemOID": "IT.VS.VSSTRESC", "OrderNumber": 10, "Mandatory": "No", "MethodOID": "MT.VSSTRESC"}, {"ItemOID": "IT.VS.VSSTRESN", "OrderNumber": 11, "Mandatory": "No", "MethodOID": "MT.VSSTRESN"}, {"ItemOID": "IT.VS.VSSTRESU", "OrderNumber": 12, "Mandatory": "No"}, {"ItemOID": "IT.VS.VSBLFL", "OrderNumber": 13, "Mandatory": "No", "MethodOID": "MT.VSBLFL"}, {"ItemOID": "IT.VS.VISITNUM", "OrderNumber": 14, "Mandatory": "No", "KeySequence": 5}, {"ItemOID": "IT.VS.VISIT", "OrderNumber": 15, "Mandatory": "No"}, {"ItemOID": "IT.VS.VISITDY", "OrderNumber": 16, "Mandatory": "No"}, {"ItemOID": "IT.VS.VSDTC", "OrderNumber": 17, "Mandatory": "No", "KeySequence": 4}, {"ItemOID": "IT.VS.VSDY", "OrderNumber": 18, "Mandatory": "No", "MethodOID": "MT.VSDY"}], "leaf": {"ID": "LF.VS", "href": "vs.xpt", "title": {"_content": "vs.xpt"}}}, {"OID": "IG.RELREC", "Domain": "RELREC", "Name": "RELREC", "Repeating": "Yes", "IsReferenceData": "No", "SASDatasetName": "RELREC", "Purpose": "Tabulation", "Structure": "One record per related record, group of records or dataset", "Class": "RELATIONSHIP", "ArchiveLocationID": "LF.RELREC", "Description": {"TranslatedText": [{"lang": "en", "_content": "Related Records"}]}, "ItemRef": [{"ItemOID": "IT.STUDYID", "OrderNumber": 1, "Mandatory": "Yes", "KeySequence": 1}, {"ItemOID": "IT.RDOMAIN", "OrderNumber": 2, "Mandatory": "Yes", "KeySequence": 2, "MethodOID": "MT.RDOMAIN"}, {"ItemOID": "IT.USUBJID", "OrderNumber": 3, "Mandatory": "No", "KeySequence": 3, "MethodOID": "MT.USUBJID"}, {"ItemOID": "IT.RELREC.IDVAR", "OrderNumber": 4, "Mandatory": "Yes", "KeySequence": 4}, {"ItemOID": "IT.RELREC.IDVARVAL", "OrderNumber": 5, "Mandatory": "No", "KeySequence": 5}, {"ItemOID": "IT.RELREC.RELTYPE", "OrderNumber": 6, "Mandatory": "No"}, {"ItemOID": "IT.RELREC.RELID", "OrderNumber": 7, "Mandatory": "Yes", "KeySequence": 6, "MethodOID": "MT.RELID"}], "leaf": {"ID": "LF.RELREC", "href": "relrec.xpt", "title": {"_content": "relrec.xpt"}}}, {"OID": "IG.SUPPAE", "Domain": "SUPPAE", "Name": "SUPPAE", "Repeating": "Yes", "IsReferenceData": "No", "SASDatasetName": "SUPPAE", "Purpose": "Tabulation", "Structure": "One record per IDVAR, IDVARVAL, and QNAM value per subject", "Class": "RELATIONSHIP", "ArchiveLocationID": "LF.SUPPAE", "Description": {"TranslatedText": [{"lang": "en", "_content": "Supplemental Qualifiers for AE"}]}, "ItemRef": [{"ItemOID": "IT.STUDYID", "OrderNumber": 1, "Mandatory": "Yes", "KeySequence": 1}, {"ItemOID": "IT.RDOMAIN", "OrderNumber": 2, "Mandatory": "Yes", "KeySequence": 2, "MethodOID": "MT.RDOMAIN"}, {"ItemOID": "IT.USUBJID", "OrderNumber": 3, "Mandatory": "Yes", "KeySequence": 3, "MethodOID": "MT.USUBJID"}, {"ItemOID": "IT.SUPPAE.IDVAR", "OrderNumber": 4, "Mandatory": "No", "KeySequence": 4}, {"ItemOID": "IT.SUPPAE.IDVARVAL", "OrderNumber": 5, "Mandatory": "No", "KeySequence": 5}, {"ItemOID": "IT.SUPPAE.QNAM", "OrderNumber": 6, "Mandatory": "Yes", "KeySequence": 6}, {"ItemOID": "IT.SUPPAE.QLABEL", "OrderNumber": 7, "Mandatory": "Yes"}, {"ItemOID": "IT.SUPPAE.QVAL", "OrderNumber": 8, "Mandatory": "Yes"}, {"ItemOID": "IT.SUPPAE.QORIG", "OrderNumber": 9, "Mandatory": "Yes"}, {"ItemOID": "IT.SUPPAE.QEVAL", "OrderNumber": 10, "Mandatory": "No"}], "leaf": {"ID": "LF.SUPPAE", "href": "suppae.xpt", "title": {"_content": "suppae.xpt"}}}, {"OID": "IG.SUPPCM", "Domain": "SUPPCM", "Name": "SUPPCM", "Repeating": "Yes", "IsReferenceData": "No", "SASDatasetName": "SUPPCM", "Purpose": "Tabulation", "Structure": "One record per IDVAR, IDVARVAL, and QNAM value per subject", "Class": "RELATIONSHIP", "ArchiveLocationID": "LF.SUPPCM", "Description": {"TranslatedText": [{"lang": "en", "_content": "Supplemental Qualifiers for CM"}]}, "ItemRef": [{"ItemOID": "IT.STUDYID", "OrderNumber": 1, "Mandatory": "Yes", "KeySequence": 1}, {"ItemOID": "IT.RDOMAIN", "OrderNumber": 2, "Mandatory": "Yes", "KeySequence": 2, "MethodOID": "MT.RDOMAIN"}, {"ItemOID": "IT.USUBJID", "OrderNumber": 3, "Mandatory": "Yes", "KeySequence": 3, "MethodOID": "MT.USUBJID"}, {"ItemOID": "IT.SUPPCM.IDVAR", "OrderNumber": 4, "Mandatory": "No", "KeySequence": 4}, {"ItemOID": "IT.SUPPCM.IDVARVAL", "OrderNumber": 5, "Mandatory": "No", "KeySequence": 5}, {"ItemOID": "IT.SUPPCM.QNAM", "OrderNumber": 6, "Mandatory": "Yes", "KeySequence": 6}, {"ItemOID": "IT.SUPPCM.QLABEL", "OrderNumber": 7, "Mandatory": "Yes"}, {"ItemOID": "IT.SUPPCM.QVAL", "OrderNumber": 8, "Mandatory": "Yes"}, {"ItemOID": "IT.SUPPCM.QORIG", "OrderNumber": 9, "Mandatory": "Yes"}, {"ItemOID": "IT.SUPPCM.QEVAL", "OrderNumber": 10, "Mandatory": "No"}], "leaf": {"ID": "LF.SUPPCM", "href": "suppcm.xpt", "title": {"_content": "suppcm.xpt"}}}, {"OID": "IG.SUPPDM", "Domain": "SUPPDM", "Name": "SUPPDM", "Repeating": "Yes", "IsReferenceData": "No", "SASDatasetName": "SUPPDM", "Purpose": "Tabulation", "Structure": "One record per IDVAR, IDVARVAL, and QNAM value per subject", "Class": "RELATIONSHIP", "ArchiveLocationID": "LF.SUPPDM", "Description": {"TranslatedText": [{"lang": "en", "_content": "Supplemental Qualifiers for DM"}]}, "ItemRef": [{"ItemOID": "IT.STUDYID", "OrderNumber": 1, "Mandatory": "Yes", "KeySequence": 1}, {"ItemOID": "IT.RDOMAIN", "OrderNumber": 2, "Mandatory": "Yes", "KeySequence": 2, "MethodOID": "MT.RDOMAIN"}, {"ItemOID": "IT.USUBJID", "OrderNumber": 3, "Mandatory": "Yes", "KeySequence": 3, "MethodOID": "MT.USUBJID"}, {"ItemOID": "IT.SUPPDM.IDVAR", "OrderNumber": 4, "Mandatory": "No", "KeySequence": 4}, {"ItemOID": "IT.SUPPDM.IDVARVAL", "OrderNumber": 5, "Mandatory": "No", "KeySequence": 5}, {"ItemOID": "IT.SUPPDM.QNAM", "OrderNumber": 6, "Mandatory": "Yes", "KeySequence": 6}, {"ItemOID": "IT.SUPPDM.QLABEL", "OrderNumber": 7, "Mandatory": "Yes"}, {"ItemOID": "IT.SUPPDM.QVAL", "OrderNumber": 8, "Mandatory": "Yes"}, {"ItemOID": "IT.SUPPDM.QORIG", "OrderNumber": 9, "Mandatory": "Yes"}, {"ItemOID": "IT.SUPPDM.QEVAL", "OrderNumber": 10, "Mandatory": "No"}], "leaf": {"ID": "LF.SUPPDM", "href": "suppdm.xpt", "title": {"_content": "suppdm.xpt"}}}, {"OID": "IG.SUPPEG", "Domain": "SUPPEG", "Name": "SUPPEG", "Repeating": "Yes", "IsReferenceData": "No", "SASDatasetName": "SUPPEG", "Purpose": "Tabulation", "Structure": "One record per IDVAR, IDVARVAL, and QNAM value per subject", "Class": "RELATIONSHIP", "ArchiveLocationID": "LF.SUPPEG", "Description": {"TranslatedText": [{"lang": "en", "_content": "Supplemental Qualifiers for EG"}]}, "ItemRef": [{"ItemOID": "IT.STUDYID", "OrderNumber": 1, "Mandatory": "Yes", "KeySequence": 1}, {"ItemOID": "IT.RDOMAIN", "OrderNumber": 2, "Mandatory": "Yes", "KeySequence": 2, "MethodOID": "MT.RDOMAIN"}, {"ItemOID": "IT.USUBJID", "OrderNumber": 3, "Mandatory": "Yes", "KeySequence": 3, "MethodOID": "MT.USUBJID"}, {"ItemOID": "IT.SUPPEG.IDVAR", "OrderNumber": 4, "Mandatory": "No", "KeySequence": 4}, {"ItemOID": "IT.SUPPEG.IDVARVAL", "OrderNumber": 5, "Mandatory": "No", "KeySequence": 5}, {"ItemOID": "IT.SUPPEG.QNAM", "OrderNumber": 6, "Mandatory": "Yes", "KeySequence": 6}, {"ItemOID": "IT.SUPPEG.QLABEL", "OrderNumber": 7, "Mandatory": "Yes"}, {"ItemOID": "IT.SUPPEG.QVAL", "OrderNumber": 8, "Mandatory": "Yes"}, {"ItemOID": "IT.SUPPEG.QORIG", "OrderNumber": 9, "Mandatory": "Yes"}, {"ItemOID": "IT.SUPPEG.QEVAL", "OrderNumber": 10, "Mandatory": "No"}], "leaf": {"ID": "LF.SUPPEG", "href": "suppeg.xpt", "title": {"_content": "suppeg.xpt"}}}, {"OID": "IG.SUPPEX", "Domain": "SUPPEX", "Name": "SUPPEX", "Repeating": "Yes", "IsReferenceData": "No", "SASDatasetName": "SUPPEX", "Purpose": "Tabulation", "Structure": "One record per IDVAR, IDVARVAL, and QNAM value per subject", "Class": "RELATIONSHIP", "ArchiveLocationID": "LF.SUPPEX", "Description": {"TranslatedText": [{"lang": "en", "_content": "Supplemental Qualifiers for EX"}]}, "ItemRef": [{"ItemOID": "IT.STUDYID", "OrderNumber": 1, "Mandatory": "Yes", "KeySequence": 1}, {"ItemOID": "IT.RDOMAIN", "OrderNumber": 2, "Mandatory": "Yes", "KeySequence": 2, "MethodOID": "MT.RDOMAIN"}, {"ItemOID": "IT.USUBJID", "OrderNumber": 3, "Mandatory": "Yes", "KeySequence": 3, "MethodOID": "MT.USUBJID"}, {"ItemOID": "IT.SUPPEX.IDVAR", "OrderNumber": 4, "Mandatory": "No", "KeySequence": 4}, {"ItemOID": "IT.SUPPEX.IDVARVAL", "OrderNumber": 5, "Mandatory": "No", "KeySequence": 5}, {"ItemOID": "IT.SUPPEX.QNAM", "OrderNumber": 6, "Mandatory": "Yes", "KeySequence": 6}, {"ItemOID": "IT.SUPPEX.QLABEL", "OrderNumber": 7, "Mandatory": "Yes"}, {"ItemOID": "IT.SUPPEX.QVAL", "OrderNumber": 8, "Mandatory": "Yes"}, {"ItemOID": "IT.SUPPEX.QORIG", "OrderNumber": 9, "Mandatory": "Yes"}, {"ItemOID": "IT.SUPPEX.QEVAL", "OrderNumber": 10, "Mandatory": "No"}], "leaf": {"ID": "LF.SUPPEX", "href": "suppex.xpt", "title": {"_content": "suppex.xpt"}}}, {"OID": "IG.SUPPLB", "Domain": "SUPPLB", "Name": "SUPPLB", "Repeating": "Yes", "IsReferenceData": "No", "SASDatasetName": "SUPPLB", "Purpose": "Tabulation", "Structure": "One record per IDVAR, IDVARVAL, and QNAM value per subject", "Class": "RELATIONSHIP", "ArchiveLocationID": "LF.SUPPLB", "Description": {"TranslatedText": [{"lang": "en", "_content": "Supplemental Qualifiers for LB"}]}, "ItemRef": [{"ItemOID": "IT.STUDYID", "OrderNumber": 1, "Mandatory": "Yes", "KeySequence": 1}, {"ItemOID": "IT.RDOMAIN", "OrderNumber": 2, "Mandatory": "Yes", "KeySequence": 2, "MethodOID": "MT.RDOMAIN"}, {"ItemOID": "IT.USUBJID", "OrderNumber": 3, "Mandatory": "Yes", "KeySequence": 3, "MethodOID": "MT.USUBJID"}, {"ItemOID": "IT.SUPPLB.IDVAR", "OrderNumber": 4, "Mandatory": "No", "KeySequence": 4}, {"ItemOID": "IT.SUPPLB.IDVARVAL", "OrderNumber": 5, "Mandatory": "No", "KeySequence": 5}, {"ItemOID": "IT.SUPPLB.QNAM", "OrderNumber": 6, "Mandatory": "Yes", "KeySequence": 6}, {"ItemOID": "IT.SUPPLB.QLABEL", "OrderNumber": 7, "Mandatory": "Yes"}, {"ItemOID": "IT.SUPPLB.QVAL", "OrderNumber": 8, "Mandatory": "Yes"}, {"ItemOID": "IT.SUPPLB.QORIG", "OrderNumber": 9, "Mandatory": "Yes"}, {"ItemOID": "IT.SUPPLB.QEVAL", "OrderNumber": 10, "Mandatory": "No"}], "leaf": {"ID": "LF.SUPPLB", "href": "supplb.xpt", "title": {"_content": "supplb.xpt"}}}, {"OID": "IG.SUPPQSCG", "Domain": "SUPPQSCG", "Name": "SUPPQSCG", "Repeating": "Yes", "IsReferenceData": "No", "SASDatasetName": "SUPPQSCG", "Purpose": "Tabulation", "Structure": "One record per IDVAR, IDVARVAL, and QNAM value per subject", "Class": "RELATIONSHIP", "ArchiveLocationID": "LF.SUPPQSCG", "Description": {"TranslatedText": [{"lang": "en", "_content": "Supplemental Qualifiers for QSCG"}]}, "ItemRef": [{"ItemOID": "IT.STUDYID", "OrderNumber": 1, "Mandatory": "Yes", "KeySequence": 1}, {"ItemOID": "IT.RDOMAIN", "OrderNumber": 2, "Mandatory": "Yes", "KeySequence": 2, "MethodOID": "MT.RDOMAIN"}, {"ItemOID": "IT.USUBJID", "OrderNumber": 3, "Mandatory": "Yes", "KeySequence": 3, "MethodOID": "MT.USUBJID"}, {"ItemOID": "IT.SUPPQS.IDVAR", "OrderNumber": 4, "Mandatory": "No", "KeySequence": 4}, {"ItemOID": "IT.SUPPQS.IDVARVAL", "OrderNumber": 5, "Mandatory": "No", "KeySequence": 5}, {"ItemOID": "IT.SUPPQS.QNAM", "OrderNumber": 6, "Mandatory": "Yes", "KeySequence": 6}, {"ItemOID": "IT.SUPPQS.QLABEL", "OrderNumber": 7, "Mandatory": "Yes"}, {"ItemOID": "IT.SUPPQS.QVAL", "OrderNumber": 8, "Mandatory": "Yes"}, {"ItemOID": "IT.SUPPQS.QORIG", "OrderNumber": 9, "Mandatory": "Yes"}, {"ItemOID": "IT.SUPPQS.QEVAL", "OrderNumber": 10, "Mandatory": "No"}], "leaf": {"ID": "LF.SUPPQSCG", "href": "suppqscg.xpt", "title": {"_content": "suppqscg.xpt"}}}, {"OID": "IG.SUPPQSCS", "Domain": "SUPPQSCS", "Name": "SUPPQSCS", "Repeating": "Yes", "IsReferenceData": "No", "SASDatasetName": "SUPPQSCS", "Purpose": "Tabulation", "Structure": "One record per IDVAR, IDVARVAL, and QNAM value per subject", "Class": "RELATIONSHIP", "ArchiveLocationID": "LF.SUPPQSCS", "Description": {"TranslatedText": [{"lang": "en", "_content": "Supplemental Qualifiers for QSCS"}]}, "ItemRef": [{"ItemOID": "IT.STUDYID", "OrderNumber": 1, "Mandatory": "Yes", "KeySequence": 1}, {"ItemOID": "IT.RDOMAIN", "OrderNumber": 2, "Mandatory": "Yes", "KeySequence": 2, "MethodOID": "MT.RDOMAIN"}, {"ItemOID": "IT.USUBJID", "OrderNumber": 3, "Mandatory": "Yes", "KeySequence": 3, "MethodOID": "MT.USUBJID"}, {"ItemOID": "IT.SUPPQS.IDVAR", "OrderNumber": 4, "Mandatory": "No", "KeySequence": 4}, {"ItemOID": "IT.SUPPQS.IDVARVAL", "OrderNumber": 5, "Mandatory": "No", "KeySequence": 5}, {"ItemOID": "IT.SUPPQS.QNAM", "OrderNumber": 6, "Mandatory": "Yes", "KeySequence": 6}, {"ItemOID": "IT.SUPPQS.QLABEL", "OrderNumber": 7, "Mandatory": "Yes"}, {"ItemOID": "IT.SUPPQS.QVAL", "OrderNumber": 8, "Mandatory": "Yes"}, {"ItemOID": "IT.SUPPQS.QORIG", "OrderNumber": 9, "Mandatory": "Yes"}, {"ItemOID": "IT.SUPPQS.QEVAL", "OrderNumber": 10, "Mandatory": "No"}], "leaf": {"ID": "LF.SUPPQSCS", "href": "suppqscs.xpt", "title": {"_content": "suppqscs.xpt"}}}, {"OID": "IG.SUPPQSMM", "Domain": "SUPPQSMM", "Name": "SUPPQSMM", "Repeating": "Yes", "IsReferenceData": "No", "SASDatasetName": "SUPPQSMM", "Purpose": "Tabulation", "Structure": "One record per IDVAR, IDVARVAL, and QNAM value per subject", "Class": "RELATIONSHIP", "ArchiveLocationID": "LF.SUPPQSMM", "Description": {"TranslatedText": [{"lang": "en", "_content": "Supplemental Qualifiers for QSMM"}]}, "ItemRef": [{"ItemOID": "IT.STUDYID", "OrderNumber": 1, "Mandatory": "Yes", "KeySequence": 1}, {"ItemOID": "IT.RDOMAIN", "OrderNumber": 2, "Mandatory": "Yes", "KeySequence": 2, "MethodOID": "MT.RDOMAIN"}, {"ItemOID": "IT.USUBJID", "OrderNumber": 3, "Mandatory": "Yes", "KeySequence": 3, "MethodOID": "MT.USUBJID"}, {"ItemOID": "IT.SUPPQS.IDVAR", "OrderNumber": 4, "Mandatory": "No", "KeySequence": 4}, {"ItemOID": "IT.SUPPQS.IDVARVAL", "OrderNumber": 5, "Mandatory": "No", "KeySequence": 5}, {"ItemOID": "IT.SUPPQS.QNAM", "OrderNumber": 6, "Mandatory": "Yes", "KeySequence": 6}, {"ItemOID": "IT.SUPPQS.QLABEL", "OrderNumber": 7, "Mandatory": "Yes"}, {"ItemOID": "IT.SUPPQS.QVAL", "OrderNumber": 8, "Mandatory": "Yes"}, {"ItemOID": "IT.SUPPQS.QORIG", "OrderNumber": 9, "Mandatory": "Yes"}, {"ItemOID": "IT.SUPPQS.QEVAL", "OrderNumber": 10, "Mandatory": "No"}], "leaf": {"ID": "LF.SUPPQSMM", "href": "suppqsmm.xpt", "title": {"_content": "suppqsmm.xpt"}}}, {"OID": "IG.SUPPVS", "Domain": "SUPPVS", "Name": "SUPPVS", "Repeating": "Yes", "IsReferenceData": "No", "SASDatasetName": "SUPPVS", "Purpose": "Tabulation", "Structure": "One record per IDVAR, IDVARVAL, and QNAM value per subject", "Class": "RELATIONSHIP", "ArchiveLocationID": "LF.SUPPVS", "Description": {"TranslatedText": [{"lang": "en", "_content": "Supplemental Qualifiers for VS"}]}, "ItemRef": [{"ItemOID": "IT.STUDYID", "OrderNumber": 1, "Mandatory": "Yes", "KeySequence": 1}, {"ItemOID": "IT.RDOMAIN", "OrderNumber": 2, "Mandatory": "Yes", "KeySequence": 2, "MethodOID": "MT.RDOMAIN"}, {"ItemOID": "IT.USUBJID", "OrderNumber": 3, "Mandatory": "Yes", "KeySequence": 3, "MethodOID": "MT.USUBJID"}, {"ItemOID": "IT.SUPPVS.IDVAR", "OrderNumber": 4, "Mandatory": "No", "KeySequence": 4}, {"ItemOID": "IT.SUPPVS.IDVARVAL", "OrderNumber": 5, "Mandatory": "No", "KeySequence": 5}, {"ItemOID": "IT.SUPPVS.QNAM", "OrderNumber": 6, "Mandatory": "Yes", "KeySequence": 6}, {"ItemOID": "IT.SUPPVS.QLABEL", "OrderNumber": 7, "Mandatory": "Yes"}, {"ItemOID": "IT.SUPPVS.QVAL", "OrderNumber": 8, "Mandatory": "Yes"}, {"ItemOID": "IT.SUPPVS.QORIG", "OrderNumber": 9, "Mandatory": "Yes"}, {"ItemOID": "IT.SUPPVS.QEVAL", "OrderNumber": 10, "Mandatory": "No"}], "leaf": {"ID": "LF.SUPPVS", "href": "suppvs.xpt", "title": {"_content": "suppvs.xpt"}}}], "ItemDef": [{"OID": "IT.AE.AEACN", "Name": "AEACN", "DataType": "text", "Length": 30, "SASFieldName": "AEACN", "Description": {"TranslatedText": [{"lang": "en", "_content": "Action Taken with Study Treatment"}]}, "CodeListRef": {"CodeListOID": "CL.ACN"}, "Origin": {"Type": "CRF", "DocumentRef": [{"leafID": "LF.blankcrf", "PDFPageRef": [{"PageRefs": "21", "Type": "PhysicalRef"}]}]}}, {"OID": "IT.AE.AEBODSYS", "Name": "AEBODSYS", "DataType": "text", "Length": 52, "SASFieldName": "AEBODSYS", "Description": {"TranslatedText": [{"lang": "en", "_content": "Body System or Organ Class"}]}, "CodeListRef": {"CodeListOID": "CL.AEDICT_F"}, "Origin": {"Type": "Assigned"}}, {"OID": "IT.AE.AEDECOD", "Name": "AEDECOD", "DataType": "text", "Length": 18, "SASFieldName": "AEDECOD", "Description": {"TranslatedText": [{"lang": "en", "_content": "Dictionary-Derived Term"}]}, "CodeListRef": {"CodeListOID": "CL.AEDICT_F"}, "Origin": {"Type": "Assigned"}}, {"OID": "IT.AE.AEENDTC", "Name": "AEENDTC", "DataType": "date", "SASFieldName": "AEENDTC", "Description": {"TranslatedText": [{"lang": "en", "_content": "End Date/Time of Adverse Event"}]}, "Origin": {"Type": "CRF", "DocumentRef": [{"leafID": "LF.blankcrf", "PDFPageRef": [{"PageRefs": "21", "Type": "PhysicalRef"}]}]}}, {"OID": "IT.AE.AEENDY", "Name": "AEENDY", "DataType": "integer", "Length": 3, "SASFieldName": "AEENDY", "Description": {"TranslatedText": [{"lang": "en", "_content": "Study Day of End of Adverse Event"}]}, "Origin": {"Type": "Derived"}}, {"OID": "IT.AE.AEENRF", "Name": "AEENRF", "DataType": "text", "Length": 5, "SASFieldName": "AEENRF", "Description": {"TranslatedText": [{"lang": "en", "_content": "End Relative to Reference Period"}]}, "CodeListRef": {"CodeListOID": "CL.AEENRF"}, "Origin": {"Type": "CRF", "DocumentRef": [{"leafID": "LF.blankcrf", "PDFPageRef": [{"PageRefs": "21", "Type": "PhysicalRef"}]}]}}, {"OID": "IT.AE.AEMODIFY", "Name": "AEMODIFY", "DataType": "text", "Length": 9, "SASFieldName": "AEMODIFY", "Description": {"TranslatedText": [{"lang": "en", "_content": "Modified Reported Term"}]}, "Origin": {"Type": "Assigned"}}, {"OID": "IT.AE.AEREL", "Name": "AEREL", "DataType": "text", "Length": 16, "SASFieldName": "AEREL", "Description": {"TranslatedText": [{"lang": "en", "_content": "Causality"}]}, "CodeListRef": {"CodeListOID": "CL.AEREL"}, "Origin": {"Type": "CRF", "DocumentRef": [{"leafID": "LF.blankcrf", "PDFPageRef": [{"PageRefs": "21", "Type": "PhysicalRef"}]}]}}, {"OID": "IT.AE.AESEQ", "Name": "AESEQ", "DataType": "integer", "Length": 1, "SASFieldName": "AESEQ", "Description": {"TranslatedText": [{"lang": "en", "_content": "Sequence Number"}]}, "Origin": {"Type": "Derived"}}, {"OID": "IT.AE.AESER", "Name": "AESER", "DataType": "text", "Length": 1, "SASFieldName": "AESER", "Description": {"TranslatedText": [{"lang": "en", "_content": "Serious Event"}]}, "CodeListRef": {"CodeListOID": "CL.NY"}, "Origin": {"Type": "CRF", "DocumentRef": [{"leafID": "LF.blankcrf", "PDFPageRef": [{"PageRefs": "21", "Type": "PhysicalRef"}]}]}}, {"OID": "IT.AE.AESEV", "Name": "AESEV", "DataType": "text", "Length": 8, "SASFieldName": "AESEV", "Description": {"TranslatedText": [{"lang": "en", "_content": "Severity/Intensity"}]}, "CodeListRef": {"CodeListOID": "CL.AESEV"}, "Origin": {"Type": "CRF", "DocumentRef": [{"leafID": "LF.blankcrf", "PDFPageRef": [{"PageRefs": "21", "Type": "PhysicalRef"}]}]}}, {"OID": "IT.AE.AESPID", "Name": "AESPID", "DataType": "text", "Length": 4, "SASFieldName": "AESPID", "Description": {"TranslatedText": [{"lang": "en", "_content": "Sponsor-Defined Identifier"}]}, "Origin": {"Type": "CRF", "DocumentRef": [{"leafID": "LF.blankcrf", "PDFPageRef": [{"PageRefs": "21", "Type": "PhysicalRef"}]}]}}, {"OID": "IT.AE.AESTDTC", "Name": "AESTDTC", "DataType": "date", "SASFieldName": "AESTDTC", "Description": {"TranslatedText": [{"lang": "en", "_content": "Start Date/Time of Adverse Event"}]}, "Origin": {"Type": "CRF", "DocumentRef": [{"leafID": "LF.blankcrf", "PDFPageRef": [{"PageRefs": "21", "Type": "PhysicalRef"}]}]}}, {"OID": "IT.AE.AESTDY", "Name": "AESTDY", "DataType": "integer", "Length": 3, "SASFieldName": "AESTDY", "Description": {"TranslatedText": [{"lang": "en", "_content": "Study Day of Start of Adverse Event"}]}, "Origin": {"Type": "Derived"}}, {"OID": "IT.AE.AETERM", "Name": "AETERM", "DataType": "text", "Length": 25, "SASFieldName": "AETERM", "Description": {"TranslatedText": [{"lang": "en", "_content": "Reported Term for the Adverse Event"}]}, "Origin": {"Type": "CRF", "DocumentRef": [{"leafID": "LF.blankcrf", "PDFPageRef": [{"PageRefs": "21", "Type": "PhysicalRef"}]}]}}, {"OID": "IT.AE.DOMAIN", "Name": "DOMAIN", "DataType": "text", "Length": 2, "SASFieldName": "DOMAIN", "Description": {"TranslatedText": [{"lang": "en", "_content": "Domain Abbreviation"}]}, "CodeListRef": {"CodeListOID": "CL.AE.DOMAIN"}, "Origin": {"Type": "Assigned"}}, {"OID": "IT.CM.CMCAT", "Name": "CMCAT", "DataType": "text", "Length": 36, "SASFieldName": "CMCAT", "Description": {"TranslatedText": [{"lang": "en", "_content": "Category for Medication"}]}, "CodeListRef": {"CodeListOID": "CL.CMCAT"}, "Origin": {"Type": "CRF", "DocumentRef": [{"leafID": "LF.blankcrf", "PDFPageRef": [{"PageRefs": "9 22", "Type": "PhysicalRef"}]}]}}, {"OID": "IT.CM.CMCLAS", "Name": "CMCLAS", "DataType": "text", "Length": 45, "SASFieldName": "CMCLAS", "CommentOID": "COM.CMCLAS", "Description": {"TranslatedText": [{"lang": "en", "_content": "Medication Class"}]}, "CodeListRef": {"CodeListOID": "CL.DRUGDICT_F"}, "Origin": {"Type": "Assigned"}}, {"OID": "IT.CM.CMCLASCD", "Name": "CMCLASCD", "DataType": "text", "Length": 3, "SASFieldName": "CMCLASCD", "CommentOID": "COM.CMCLASCD", "Description": {"TranslatedText": [{"lang": "en", "_content": "Medication Class Code"}]}, "CodeListRef": {"CodeListOID": "CL.DRUGDICT_F"}, "Origin": {"Type": "Assigned"}}, {"OID": "IT.CM.CMDECOD", "Name": "CMDECOD", "DataType": "text", "Length": 30, "SASFieldName": "CMDECOD", "Description": {"TranslatedText": [{"lang": "en", "_content": "Standardized Medication Name"}]}, "CodeListRef": {"CodeListOID": "CL.DRUGDICT_F"}, "Origin": {"Type": "Assigned"}}, {"OID": "IT.CM.CMDOSFRQ", "Name": "CMDOSFRQ", "DataType": "text", "Length": 5, "SASFieldName": "CMDOSFRQ", "Description": {"TranslatedText": [{"lang": "en", "_content": "Dosing Frequency per Interval"}]}, "CodeListRef": {"CodeListOID": "CL.FREQ"}, "Origin": {"Type": "CRF", "DocumentRef": [{"leafID": "LF.blankcrf", "PDFPageRef": [{"PageRefs": "22", "Type": "PhysicalRef"}]}]}}, {"OID": "IT.CM.CMDOSTXT", "Name": "CMDOSTXT", "DataType": "text", "Length": 4, "SASFieldName": "CMDOSTXT", "Description": {"TranslatedText": [{"lang": "en", "_content": "Dose Description"}]}, "Origin": {"Type": "CRF", "DocumentRef": [{"leafID": "LF.blankcrf", "PDFPageRef": [{"PageRefs": "9 22", "Type": "PhysicalRef"}]}]}}, {"OID": "IT.CM.CMDOSU", "Name": "CMDOSU", "DataType": "text", "Length": 6, "SASFieldName": "CMDOSU", "Description": {"TranslatedText": [{"lang": "en", "_content": "Dose Units"}]}, "CodeListRef": {"CodeListOID": "CL.CMUNIT"}, "Origin": {"Type": "CRF", "DocumentRef": [{"leafID": "LF.blankcrf", "PDFPageRef": [{"PageRefs": "9 22", "Type": "PhysicalRef"}]}]}}, {"OID": "IT.CM.CMENDTC", "Name": "CMENDTC", "DataType": "date", "SASFieldName": "CMENDTC", "Description": {"TranslatedText": [{"lang": "en", "_content": "End Date/Time of Medication"}]}, "Origin": {"Type": "CRF", "DocumentRef": [{"leafID": "LF.blankcrf", "PDFPageRef": [{"PageRefs": "9 22", "Type": "PhysicalRef"}]}]}}, {"OID": "IT.CM.CMENDY", "Name": "CMENDY", "DataType": "integer", "Length": 4, "SASFieldName": "CMENDY", "Description": {"TranslatedText": [{"lang": "en", "_content": "Study Day of End of Medication"}]}, "Origin": {"Type": "Derived"}}, {"OID": "IT.CM.CMENRF", "Name": "CMENRF", "DataType": "text", "Length": 6, "SASFieldName": "CMENRF", "Description": {"TranslatedText": [{"lang": "en", "_content": "End Relative to Reference Period"}]}, "CodeListRef": {"CodeListOID": "CL.CMENRF"}, "Origin": {"Type": "CRF", "DocumentRef": [{"leafID": "LF.blankcrf", "PDFPageRef": [{"PageRefs": "22", "Type": "PhysicalRef"}]}]}}, {"OID": "IT.CM.CMINDC", "Name": "CMINDC", "DataType": "text", "Length": 27, "SASFieldName": "CMINDC", "Description": {"TranslatedText": [{"lang": "en", "_content": "Indication"}]}, "Origin": {"Type": "CRF", "DocumentRef": [{"leafID": "LF.blankcrf", "PDFPageRef": [{"PageRefs": "9 22", "Type": "PhysicalRef"}]}]}}, {"OID": "IT.CM.CMMODIFY", "Name": "CMMODIFY", "DataType": "text", "Length": 23, "SASFieldName": "CMMODIFY", "Description": {"TranslatedText": [{"lang": "en", "_content": "Modified Reported Name"}]}, "Origin": {"Type": "Assigned"}}, {"OID": "IT.CM.CMROUTE", "Name": "CMROUTE", "DataType": "text", "Length": 12, "SASFieldName": "CMROUTE", "CommentOID": "COM.CMROUTE", "Description": {"TranslatedText": [{"lang": "en", "_content": "Route of Administration"}]}, "CodeListRef": {"CodeListOID": "CL.ROUTE"}, "Origin": {"Type": "CRF", "DocumentRef": [{"leafID": "LF.blankcrf", "PDFPageRef": [{"PageRefs": "22", "Type": "PhysicalRef"}]}]}}, {"OID": "IT.CM.CMSEQ", "Name": "CMSEQ", "DataType": "integer", "Length": 2, "SASFieldName": "CMSEQ", "Description": {"TranslatedText": [{"lang": "en", "_content": "Sequence Number"}]}, "Origin": {"Type": "Derived"}}, {"OID": "IT.CM.CMSTDTC", "Name": "CMSTDTC", "DataType": "date", "SASFieldName": "CMSTDTC", "Description": {"TranslatedText": [{"lang": "en", "_content": "Start Date/Time of Medication"}]}, "Origin": {"Type": "CRF", "DocumentRef": [{"leafID": "LF.blankcrf", "PDFPageRef": [{"PageRefs": "9 22", "Type": "PhysicalRef"}]}]}}, {"OID": "IT.CM.CMSTDY", "Name": "CMSTDY", "DataType": "integer", "Length": 6, "SASFieldName": "CMSTDY", "Description": {"TranslatedText": [{"lang": "en", "_content": "Study Day of Start of Medication"}]}, "Origin": {"Type": "Derived"}}, {"OID": "IT.CM.CMTRT", "Name": "CMTRT", "DataType": "text", "Length": 23, "SASFieldName": "CMTRT", "Description": {"TranslatedText": [{"lang": "en", "_content": "Reported Name of Drug, Med, or Therapy"}]}, "Origin": {"Type": "CRF", "DocumentRef": [{"leafID": "LF.blankcrf", "PDFPageRef": [{"PageRefs": "9 22", "Type": "PhysicalRef"}]}]}}, {"OID": "IT.CM.DOMAIN", "Name": "DOMAIN", "DataType": "text", "Length": 2, "SASFieldName": "DOMAIN", "Description": {"TranslatedText": [{"lang": "en", "_content": "Domain Abbreviation"}]}, "CodeListRef": {"CodeListOID": "CL.CM.DOMAIN"}, "Origin": {"Type": "Assigned"}}, {"OID": "IT.DA.DADTC", "Name": "DADTC", "DataType": "date", "SASFieldName": "DADTC", "Description": {"TranslatedText": [{"lang": "en", "_content": "Date/Time of Accountability Assessment"}]}, "Origin": {"Type": "CRF", "DocumentRef": [{"leafID": "LF.blankcrf", "PDFPageRef": [{"PageRefs": "19", "Type": "PhysicalRef"}]}]}}, {"OID": "IT.DA.DADY", "Name": "DADY", "DataType": "integer", "Length": 3, "SASFieldName": "DADY", "Description": {"TranslatedText": [{"lang": "en", "_content": "Study Day of Accountability Assessment"}]}, "Origin": {"Type": "Derived"}}, {"OID": "IT.DA.DAORRES", "Name": "DAORRES", "DataType": "text", "Length": 2, "SASFieldName": "DAORRES", "Description": {"TranslatedText": [{"lang": "en", "_content": "Assessment Result in Original Units"}]}, "Origin": {"Type": "CRF", "DocumentRef": [{"leafID": "LF.blankcrf", "PDFPageRef": [{"PageRefs": "19", "Type": "PhysicalRef"}]}]}, "ValueListRef": {"ValueListOID": "VL.DA.DAORRES"}}, {"OID": "IT.DA.DAORRES.DISPAMT", "Name": "DA.DISPAMT", "DataType": "integer", "Length": 2, "SASFieldName": "DISPAMT", "Description": {"TranslatedText": [{"lang": "en", "_content": "Dispensed Amount"}]}, "Origin": {"Type": "CRF", "DocumentRef": [{"leafID": "LF.blankcrf", "PDFPageRef": [{"PageRefs": "19", "Type": "PhysicalRef"}]}]}}, {"OID": "IT.DA.DAORRES.RETAMT", "Name": "DA.RETAMT", "DataType": "integer", "Length": 2, "SASFieldName": "RETAMT", "Description": {"TranslatedText": [{"lang": "en", "_content": "Returned Amount"}]}, "Origin": {"Type": "CRF", "DocumentRef": [{"leafID": "LF.blankcrf", "PDFPageRef": [{"PageRefs": "19", "Type": "PhysicalRef"}]}]}}, {"OID": "IT.DA.DAORRESU", "Name": "DAORRESU", "DataType": "text", "Length": 7, "SASFieldName": "DAORRESU", "Description": {"TranslatedText": [{"lang": "en", "_content": "Original Units"}]}, "Origin": {"Type": "CRF", "DocumentRef": [{"leafID": "LF.blankcrf", "PDFPageRef": [{"PageRefs": "19", "Type": "PhysicalRef"}]}]}}, {"OID": "IT.DA.DASEQ", "Name": "DASEQ", "DataType": "integer", "Length": 1, "SASFieldName": "DASEQ", "Description": {"TranslatedText": [{"lang": "en", "_content": "Sequence Number"}]}, "Origin": {"Type": "Derived"}}, {"OID": "IT.DA.DASTRESC", "Name": "DASTRESC", "DataType": "text", "Length": 2, "SASFieldName": "DASTRESC", "Description": {"TranslatedText": [{"lang": "en", "_content": "Assessment Result in Std Format"}]}, "Origin": {"Type": "Derived"}}, {"OID": "IT.DA.DASTRESN", "Name": "DASTRESN", "DataType": "integer", "Length": 2, "SASFieldName": "DASTRESN", "Description": {"TranslatedText": [{"lang": "en", "_content": "Numeric Result/Finding in Standard Units"}]}, "Origin": {"Type": "Derived"}}, {"OID": "IT.DA.DASTRESU", "Name": "DASTRESU", "DataType": "text", "Length": 7, "SASFieldName": "DASTRESU", "Description": {"TranslatedText": [{"lang": "en", "_content": "Assessment Standard Units"}]}, "Origin": {"Type": "Derived"}}, {"OID": "IT.DA.DATEST", "Name": "DATEST", "DataType": "text", "Length": 25, "SASFieldName": "DATEST", "Description": {"TranslatedText": [{"lang": "en", "_content": "Name of Accountability Assessment"}]}, "CodeListRef": {"CodeListOID": "CL.DATEST"}, "Origin": {"Type": "CRF", "DocumentRef": [{"leafID": "LF.blankcrf", "PDFPageRef": [{"PageRefs": "19", "Type": "PhysicalRef"}]}]}}, {"OID": "IT.DA.DATESTCD", "Name": "DATESTCD", "DataType": "text", "Length": 7, "SASFieldName": "DATESTCD", "Description": {"TranslatedText": [{"lang": "en", "_content": "Short Name of Accountability Assessment"}]}, "CodeListRef": {"CodeListOID": "CL.DATESTCD"}, "Origin": {"Type": "Assigned"}}, {"OID": "IT.DA.DOMAIN", "Name": "DOMAIN", "DataType": "text", "Length": 2, "SASFieldName": "DOMAIN", "Description": {"TranslatedText": [{"lang": "en", "_content": "Domain Abbreviation"}]}, "CodeListRef": {"CodeListOID": "CL.DA.DOMAIN"}, "Origin": {"Type": "Assigned"}}, {"OID": "IT.DA.VISIT", "Name": "VISIT", "DataType": "text", "Length": 8, "SASFieldName": "VISIT", "Description": {"TranslatedText": [{"lang": "en", "_content": "Visit Name"}]}, "Origin": {"Type": "Assigned"}}, {"OID": "IT.DA.VISITDY", "Name": "VISITDY", "DataType": "integer", "Length": 3, "SASFieldName": "VISITDY", "Description": {"TranslatedText": [{"lang": "en", "_content": "Planned Study Day of Visit"}]}, "Origin": {"Type": "Protocol"}}, {"OID": "IT.DA.VISITNUM", "Name": "VISITNUM", "DataType": "integer", "Length": 2, "SASFieldName": "VISITNUM", "Description": {"TranslatedText": [{"lang": "en", "_content": "Visit Number"}]}, "Origin": {"Type": "Derived"}}, {"OID": "IT.DM.AGE", "Name": "AGE", "DataType": "integer", "Length": 2, "SASFieldName": "AGE", "Description": {"TranslatedText": [{"lang": "en", "_content": "Age"}]}, "Origin": {"Type": "Derived"}}, {"OID": "IT.DM.AGEU", "Name": "AGEU", "DataType": "text", "Length": 5, "SASFieldName": "AGEU", "CommentOID": "COM.AGEU", "Description": {"TranslatedText": [{"lang": "en", "_content": "Age Units"}]}, "Origin": {"Type": "Assigned"}}, {"OID": "IT.DM.ARM", "Name": "ARM", "DataType": "text", "Length": 20, "SASFieldName": "ARM", "CommentOID": "COM.ARM", "Description": {"TranslatedText": [{"lang": "en", "_content": "Description of Planned Arm"}]}, "CodeListRef": {"CodeListOID": "CL.ARM"}, "Origin": {"Type": "Assigned"}}, {"OID": "IT.DM.ARMCD", "Name": "ARMCD", "DataType": "text", "Length": 8, "SASFieldName": "ARMCD", "CommentOID": "COM.ARMCD", "Description": {"TranslatedText": [{"lang": "en", "_content": "Planned Arm Code"}]}, "CodeListRef": {"CodeListOID": "CL.ARMCD"}, "Origin": {"Type": "Assigned"}}, {"OID": "IT.DM.BRTHDTC", "Name": "BRTHDTC", "DataType": "date", "SASFieldName": "BRTHDTC", "Description": {"TranslatedText": [{"lang": "en", "_content": "Date/Time of Birth"}]}, "Origin": {"Type": "CRF", "DocumentRef": [{"leafID": "LF.blankcrf", "PDFPageRef": [{"PageRefs": "6", "Type": "PhysicalRef"}]}]}}, {"OID": "IT.DM.COUNTRY", "Name": "COUNTRY", "DataType": "text", "Length": 3, "SASFieldName": "COUNTRY", "Description": {"TranslatedText": [{"lang": "en", "_content": "Country"}]}, "CodeListRef": {"CodeListOID": "CL.ISO3166"}, "Origin": {"Type": "Assigned"}}, {"OID": "IT.DM.DOMAIN", "Name": "DOMAIN", "DataType": "text", "Length": 2, "SASFieldName": "DOMAIN", "Description": {"TranslatedText": [{"lang": "en", "_content": "Domain Abbreviation"}]}, "CodeListRef": {"CodeListOID": "CL.DM.DOMAIN"}, "Origin": {"Type": "Assigned"}}, {"OID": "IT.DM.ETHNIC", "Name": "ETHNIC", "DataType": "text", "Length": 22, "SASFieldName": "ETHNIC", "Description": {"TranslatedText": [{"lang": "en", "_content": "Ethnicity"}]}, "CodeListRef": {"CodeListOID": "CL.ETHNIC"}, "Origin": {"Type": "CRF", "DocumentRef": [{"leafID": "LF.blankcrf", "PDFPageRef": [{"PageRefs": "6", "Type": "PhysicalRef"}]}]}}, {"OID": "IT.DM.RACE", "Name": "RACE", "DataType": "text", "Length": 40, "SASFieldName": "RACE", "Description": {"TranslatedText": [{"lang": "en", "_content": "Race"}]}, "CodeListRef": {"CodeListOID": "CL.RACE"}, "Origin": {"Type": "CRF", "DocumentRef": [{"leafID": "LF.blankcrf", "PDFPageRef": [{"PageRefs": "6", "Type": "PhysicalRef"}]}]}}, {"OID": "IT.DM.RFENDTC", "Name": "RFENDTC", "DataType": "date", "SASFieldName": "RFENDTC", "Description": {"TranslatedText": [{"lang": "en", "_content": "Subject Reference End Date/Time"}]}, "Origin": {"Type": "Derived"}}, {"OID": "IT.DM.RFSTDTC", "Name": "RFSTDTC", "DataType": "date", "SASFieldName": "RFSTDTC", "Description": {"TranslatedText": [{"lang": "en", "_content": "Subject Reference Start Date/Time"}]}, "Origin": {"Type": "Derived"}}, {"OID": "IT.DM.SEX", "Name": "SEX", "DataType": "text", "Length": 1, "SASFieldName": "SEX", "Description": {"TranslatedText": [{"lang": "en", "_content": "Sex"}]}, "CodeListRef": {"CodeListOID": "CL.SEX"}, "Origin": {"Type": "CRF", "DocumentRef": [{"leafID": "LF.blankcrf", "PDFPageRef": [{"PageRefs": "6", "Type": "PhysicalRef"}]}]}}, {"OID": "IT.DM.SITEID", "Name": "SITEID", "DataType": "text", "Length": 3, "SASFieldName": "SITEID", "Description": {"TranslatedText": [{"lang": "en", "_content": "Study Site Identifier"}]}, "Origin": {"Type": "CRF", "DocumentRef": [{"leafID": "LF.blankcrf", "PDFPageRef": [{"PageRefs": "3", "Type": "PhysicalRef"}]}]}}, {"OID": "IT.DM.SUBJID", "Name": "SUBJID", "DataType": "text", "Length": 6, "SASFieldName": "SUBJID", "Description": {"TranslatedText": [{"lang": "en", "_content": "Subject Identifier for the Study"}]}, "Origin": {"Type": "CRF", "DocumentRef": [{"leafID": "LF.blankcrf", "PDFPageRef": [{"PageRefs": "3", "Type": "PhysicalRef"}]}]}}, {"OID": "IT.DS.DOMAIN", "Name": "DOMAIN", "DataType": "text", "Length": 2, "SASFieldName": "DOMAIN", "Description": {"TranslatedText": [{"lang": "en", "_content": "Domain Abbreviation"}]}, "CodeListRef": {"CodeListOID": "CL.DS.DOMAIN"}, "Origin": {"Type": "Assigned"}}, {"OID": "IT.DS.DSCAT", "Name": "DSCAT", "DataType": "text", "Length": 18, "SASFieldName": "DSCAT", "Description": {"TranslatedText": [{"lang": "en", "_content": "Category for Disposition Event"}]}, "CodeListRef": {"CodeListOID": "CL.DSCAT"}, "Origin": {"Type": "Assigned"}}, {"OID": "IT.DS.DSDECOD", "Name": "DSDECOD", "DataType": "text", "Length": 21, "SASFieldName": "DSDECOD", "CommentOID": "COM.DSDECOD", "Description": {"TranslatedText": [{"lang": "en", "_content": "Standardized Disposition Term"}]}, "CodeListRef": {"CodeListOID": "CL.NCOMPLT"}, "Origin": {"Type": "CRF", "DocumentRef": [{"leafID": "LF.blankcrf", "PDFPageRef": [{"PageRefs": "6 16 18", "Type": "PhysicalRef"}]}]}}, {"OID": "IT.DS.DSSEQ", "Name": "DSSEQ", "DataType": "integer", "Length": 1, "SASFieldName": "DSSEQ", "Description": {"TranslatedText": [{"lang": "en", "_content": "Sequence Number"}]}, "Origin": {"Type": "Derived"}}, {"OID": "IT.DS.DSSTDTC", "Name": "DSSTDTC", "DataType": "date", "SASFieldName": "DSSTDTC", "Description": {"TranslatedText": [{"lang": "en", "_content": "Start Date/Time of Disposition Event"}]}, "Origin": {"Type": "CRF", "DocumentRef": [{"leafID": "LF.blankcrf", "PDFPageRef": [{"PageRefs": "6 16 18", "Type": "PhysicalRef"}]}]}}, {"OID": "IT.DS.DSSTDY", "Name": "DSSTDY", "DataType": "integer", "Length": 3, "SASFieldName": "DSSTDY", "Description": {"TranslatedText": [{"lang": "en", "_content": "Study Day of Start of Disposition Event"}]}, "Origin": {"Type": "Derived"}}, {"OID": "IT.DS.DSTERM", "Name": "DSTERM", "DataType": "text", "Length": 34, "SASFieldName": "DSTERM", "Description": {"TranslatedText": [{"lang": "en", "_content": "Reported Term for the Disposition Event"}]}, "CodeListRef": {"CodeListOID": "CL.TREASFF"}, "Origin": {"Type": "CRF", "DocumentRef": [{"leafID": "LF.blankcrf", "PDFPageRef": [{"PageRefs": "6 16 18", "Type": "PhysicalRef"}]}]}}, {"OID": "IT.DS.EPOCH", "Name": "EPOCH", "DataType": "text", "Length": 9, "SASFieldName": "EPOCH", "Description": {"TranslatedText": [{"lang": "en", "_content": "Epoch"}]}, "CodeListRef": {"CodeListOID": "CL.EPOCH"}, "Origin": {"Type": "Assigned"}}, {"OID": "IT.EG.DOMAIN", "Name": "DOMAIN", "DataType": "text", "Length": 2, "SASFieldName": "DOMAIN", "Description": {"TranslatedText": [{"lang": "en", "_content": "Domain Abbreviation"}]}, "CodeListRef": {"CodeListOID": "CL.EG.DOMAIN"}, "Origin": {"Type": "Assigned"}}, {"OID": "IT.EG.EGBLFL", "Name": "EGBLFL", "DataType": "text", "Length": 1, "SASFieldName": "EGBLFL", "Description": {"TranslatedText": [{"lang": "en", "_content": "Baseline Flag"}]}, "CodeListRef": {"CodeListOID": "CL.NY"}, "Origin": {"Type": "Derived"}}, {"OID": "IT.EG.EGDRVFL", "Name": "EGDRVFL", "DataType": "text", "Length": 1, "SASFieldName": "EGDRVFL", "Description": {"TranslatedText": [{"lang": "en", "_content": "Derived Flag"}]}, "CodeListRef": {"CodeListOID": "CL.NY"}, "Origin": {"Type": "Derived"}}, {"OID": "IT.EG.EGDTC", "Name": "EGDTC", "DataType": "date", "SASFieldName": "EGDTC", "Description": {"TranslatedText": [{"lang": "en", "_content": "Date/Time of ECG"}]}, "Origin": {"Type": "CRF", "DocumentRef": [{"leafID": "LF.blankcrf", "PDFPageRef": [{"PageRefs": "12", "Type": "PhysicalRef"}]}]}}, {"OID": "IT.EG.EGDY", "Name": "EGDY", "DataType": "integer", "Length": 3, "SASFieldName": "EGDY", "Description": {"TranslatedText": [{"lang": "en", "_content": "Study Day of ECG"}]}, "Origin": {"Type": "Derived"}}, {"OID": "IT.EG.EGEVAL", "Name": "EGEVAL", "DataType": "text", "Length": 12, "SASFieldName": "EGEVAL", "CommentOID": "COM.EGEVAL", "Description": {"TranslatedText": [{"lang": "en", "_content": "Evaluator"}]}, "Origin": {"Type": "Assigned"}}, {"OID": "IT.EG.EGORRES", "Name": "EGORRES", "DataType": "text", "Length": 15, "SASFieldName": "EGORRES", "Description": {"TranslatedText": [{"lang": "en", "_content": "Result or Finding in Original Units"}]}, "Origin": {"Type": "CRF", "DocumentRef": [{"leafID": "LF.blankcrf", "PDFPageRef": [{"PageRefs": "12", "Type": "PhysicalRef"}]}]}, "ValueListRef": {"ValueListOID": "VL.EG.EGORRES"}}, {"OID": "IT.EG.EGORRES.INTP", "Name": "EG.INTP.ORRES", "DataType": "text", "Length": 8, "SASFieldName": "INTPOR", "Description": {"TranslatedText": [{"lang": "en", "_content": "Interpretation: Original Results"}]}, "CodeListRef": {"CodeListOID": "CL.NABCLIN"}, "Origin": {"Type": "CRF", "DocumentRef": [{"leafID": "LF.blankcrf", "PDFPageRef": [{"PageRefs": "12", "Type": "PhysicalRef"}]}]}}, {"OID": "IT.EG.EGORRES.PRMEAN", "Name": "EG.PRMEAN.ORRES", "DataType": "integer", "Length": 3, "SASFieldName": "PRMEANOR", "Description": {"TranslatedText": [{"lang": "en", "_content": "Summary (Mean) PR Duration (Orig U)"}]}, "Origin": {"Type": "CRF", "DocumentRef": [{"leafID": "LF.blankcrf", "PDFPageRef": [{"PageRefs": "12", "Type": "PhysicalRef"}]}]}}, {"OID": "IT.EG.EGORRES.QRSDUR", "Name": "EG.QRSDUR.ORRES", "DataType": "integer", "Length": 3, "SASFieldName": "QRSDUROR", "Description": {"TranslatedText": [{"lang": "en", "_content": "Summary (Mean) QRS Duration (Orig U)"}]}, "Origin": {"Type": "CRF", "DocumentRef": [{"leafID": "LF.blankcrf", "PDFPageRef": [{"PageRefs": "12", "Type": "PhysicalRef"}]}]}}, {"OID": "IT.EG.EGORRES.QTMEAN", "Name": "EG.QTMEAN.ORRES", "DataType": "integer", "Length": 3, "SASFieldName": "QTMEANOR", "Description": {"TranslatedText": [{"lang": "en", "_content": "Summary (Mean) QT Duration (Orig U)"}]}, "Origin": {"Type": "CRF", "DocumentRef": [{"leafID": "LF.blankcrf", "PDFPageRef": [{"PageRefs": "12", "Type": "PhysicalRef"}]}]}}, {"OID": "IT.EG.EGORRES.VRMEAN", "Name": "EG.VRMEAN.ORRES", "DataType": "integer", "Length": 2, "SASFieldName": "VRMEANOR", "Description": {"TranslatedText": [{"lang": "en", "_content": "Summary (Mean) Ventricular Rate (Orig U)"}]}, "Origin": {"Type": "CRF", "DocumentRef": [{"leafID": "LF.blankcrf", "PDFPageRef": [{"PageRefs": "12", "Type": "PhysicalRef"}]}]}}, {"OID": "IT.EG.EGORRESU", "Name": "EGORRESU", "DataType": "text", "Length": 4, "SASFieldName": "EGORRESU", "Description": {"TranslatedText": [{"lang": "en", "_content": "Original Units"}]}, "CodeListRef": {"CodeListOID": "CL.EGRESU"}, "Origin": {"Type": "CRF", "DocumentRef": [{"leafID": "LF.blankcrf", "PDFPageRef": [{"PageRefs": "12", "Type": "PhysicalRef"}]}]}}, {"OID": "IT.EG.EGPOS", "Name": "EGPOS", "DataType": "text", "Length": 6, "SASFieldName": "EGPOS", "CommentOID": "COM.EGPOS", "Description": {"TranslatedText": [{"lang": "en", "_content": "ECG Position of Subject"}]}, "Origin": {"Type": "Protocol"}}, {"OID": "IT.EG.EGSEQ", "Name": "EGSEQ", "DataType": "integer", "Length": 2, "SASFieldName": "EGSEQ", "Description": {"TranslatedText": [{"lang": "en", "_content": "Sequence Number"}]}, "Origin": {"Type": "Derived"}}, {"OID": "IT.EG.EGSPID", "Name": "EGSPID", "DataType": "text", "Length": 6, "SASFieldName": "EGSPID", "CommentOID": "COM.EGSPID", "Description": {"TranslatedText": [{"lang": "en", "_content": "Sponsor-Defined Identifier"}]}, "Origin": {"Type": "Assigned"}}, {"OID": "IT.EG.EGSTRESC", "Name": "EGSTRESC", "DataType": "text", "Length": 15, "SASFieldName": "EGSTRESC", "Description": {"TranslatedText": [{"lang": "en", "_content": "Character Result/Finding in Std Format"}]}, "Origin": {"Type": "Derived"}, "ValueListRef": {"ValueListOID": "VL.EG.EGSTRESC"}}, {"OID": "IT.EG.EGSTRESC.QTCB", "Name": "EG.QTCB.STRES", "DataType": "float", "Length": 5, "SignificantDigits": 1, "DisplayFormat": "5.1", "SASFieldName": "QTCBSR", "Description": {"TranslatedText": [{"lang": "en", "_content": "QTcB - Bazett's Correction Formula"}]}, "Origin": {"Type": "Derived"}}, {"OID": "IT.EG.EGSTRESC.QTCF", "Name": "EG.QTCF.STRES", "DataType": "float", "Length": 5, "SignificantDigits": 1, "DisplayFormat": "5.1", "SASFieldName": "QTCFSR", "Description": {"TranslatedText": [{"lang": "en", "_content": "QTcF - Fridericia's Correction Formula"}]}, "Origin": {"Type": "Derived"}}, {"OID": "IT.EG.EGSTRESN", "Name": "EGSTRESN", "DataType": "float", "Length": 5, "SignificantDigits": 1, "DisplayFormat": "5.1", "SASFieldName": "EGSTRESN", "Description": {"TranslatedText": [{"lang": "en", "_content": "Numeric Result/Finding in Standard Units"}]}, "Origin": {"Type": "Derived"}}, {"OID": "IT.EG.EGSTRESU", "Name": "EGSTRESU", "DataType": "text", "Length": 9, "SASFieldName": "EGSTRESU", "Description": {"TranslatedText": [{"lang": "en", "_content": "Standard Units"}]}, "CodeListRef": {"CodeListOID": "CL.EGRESU"}, "Origin": {"Type": "Assigned"}}, {"OID": "IT.EG.EGTEST", "Name": "EGTEST", "DataType": "text", "Length": 40, "SASFieldName": "EGTEST", "Description": {"TranslatedText": [{"lang": "en", "_content": "ECG Test or Examination Name"}]}, "CodeListRef": {"CodeListOID": "CL.EGTEST"}, "Origin": {"Type": "CRF", "DocumentRef": [{"leafID": "LF.blankcrf", "PDFPageRef": [{"PageRefs": "12", "Type": "PhysicalRef"}]}]}}, {"OID": "IT.EG.EGTESTCD", "Name": "EGTESTCD", "DataType": "text", "Length": 6, "SASFieldName": "EGTESTCD", "Description": {"TranslatedText": [{"lang": "en", "_content": "ECG Test or Examination Short Name"}]}, "CodeListRef": {"CodeListOID": "CL.EGTESTCD"}, "Origin": {"Type": "Assigned"}}, {"OID": "IT.EG.VISIT", "Name": "VISIT", "DataType": "text", "Length": 7, "SASFieldName": "VISIT", "Description": {"TranslatedText": [{"lang": "en", "_content": "Visit Name"}]}, "Origin": {"Type": "Assigned"}}, {"OID": "IT.EG.VISITDY", "Name": "VISITDY", "DataType": "integer", "Length": 3, "SASFieldName": "VISITDY", "Description": {"TranslatedText": [{"lang": "en", "_content": "Planned Study Day of Visit"}]}, "Origin": {"Type": "Protocol"}}, {"OID": "IT.EG.VISITNUM", "Name": "VISITNUM", "DataType": "integer", "Length": 2, "SASFieldName": "VISITNUM", "CommentOID": "COM.EG.VISITNUM", "Description": {"TranslatedText": [{"lang": "en", "_content": "Visit Number"}]}, "Origin": {"Type": "Assigned"}}, {"OID": "IT.EX.DOMAIN", "Name": "DOMAIN", "DataType": "text", "Length": 2, "SASFieldName": "DOMAIN", "Description": {"TranslatedText": [{"lang": "en", "_content": "Domain Abbreviation"}]}, "CodeListRef": {"CodeListOID": "CL.EX.DOMAIN"}, "Origin": {"Type": "Assigned"}}, {"OID": "IT.EX.EXDOSE", "Name": "EXDOSE", "DataType": "integer", "Length": 2, "SASFieldName": "EXDOSE", "Description": {"TranslatedText": [{"lang": "en", "_content": "Dose per Administration"}]}, "Origin": {"Type": "Derived"}}, {"OID": "IT.EX.EXDOSFRM", "Name": "EXDOSFRM", "DataType": "text", "Length": 7, "SASFieldName": "EXDOSFRM", "Description": {"TranslatedText": [{"lang": "en", "_content": "Dose Form"}]}, "CodeListRef": {"CodeListOID": "CL.FRM"}, "Origin": {"Type": "CRF", "DocumentRef": [{"leafID": "LF.blankcrf", "PDFPageRef": [{"PageRefs": "20", "Type": "PhysicalRef"}]}]}}, {"OID": "IT.EX.EXDOSU", "Name": "EXDOSU", "DataType": "text", "Length": 2, "SASFieldName": "EXDOSU", "Description": {"TranslatedText": [{"lang": "en", "_content": "Dose Units"}]}, "Origin": {"Type": "Derived"}}, {"OID": "IT.EX.EXENDTC", "Name": "EXENDTC", "DataType": "date", "SASFieldName": "EXENDTC", "Description": {"TranslatedText": [{"lang": "en", "_content": "End Date/Time of Treatment"}]}, "Origin": {"Type": "CRF", "DocumentRef": [{"leafID": "LF.blankcrf", "PDFPageRef": [{"PageRefs": "20", "Type": "PhysicalRef"}]}]}}, {"OID": "IT.EX.EXENDY", "Name": "EXENDY", "DataType": "integer", "Length": 2, "SASFieldName": "EXENDY", "Description": {"TranslatedText": [{"lang": "en", "_content": "Study Day of End of Treatment"}]}, "Origin": {"Type": "Derived"}}, {"OID": "IT.EX.EXSEQ", "Name": "EXSEQ", "DataType": "integer", "Length": 1, "SASFieldName": "EXSEQ", "Description": {"TranslatedText": [{"lang": "en", "_content": "Sequence Number"}]}, "Origin": {"Type": "Derived"}}, {"OID": "IT.EX.EXSTDTC", "Name": "EXSTDTC", "DataType": "date", "SASFieldName": "EXSTDTC", "Description": {"TranslatedText": [{"lang": "en", "_content": "Start Date/Time of Treatment"}]}, "Origin": {"Type": "CRF", "DocumentRef": [{"leafID": "LF.blankcrf", "PDFPageRef": [{"PageRefs": "20", "Type": "PhysicalRef"}]}]}}, {"OID": "IT.EX.EXSTDY", "Name": "EXSTDY", "DataType": "integer", "Length": 2, "SASFieldName": "EXSTDY", "Description": {"TranslatedText": [{"lang": "en", "_content": "Study Day of Start of Treatment"}]}, "Origin": {"Type": "Derived"}}, {"OID": "IT.EX.EXTRT", "Name": "EXTRT", "DataType": "text", "Length": 20, "SASFieldName": "EXTRT", "Description": {"TranslatedText": [{"lang": "en", "_content": "Name of Actual Treatment"}]}, "CodeListRef": {"CodeListOID": "CL.EXTRT"}, "Origin": {"Type": "Derived"}}, {"OID": "IT.IE.DOMAIN", "Name": "DOMAIN", "DataType": "text", "Length": 2, "SASFieldName": "DOMAIN", "Description": {"TranslatedText": [{"lang": "en", "_content": "Domain Abbreviation"}]}, "CodeListRef": {"CodeListOID": "CL.IE.DOMAIN"}, "Origin": {"Type": "Assigned"}}, {"OID": "IT.IE.IECAT", "Name": "IECAT", "DataType": "text", "Length": 9, "SASFieldName": "IECAT", "Description": {"TranslatedText": [{"lang": "en", "_content": "Inclusion/Exclusion Category"}]}, "Origin": {"Type": "CRF", "DocumentRef": [{"leafID": "LF.blankcrf", "PDFPageRef": [{"FirstPage": 4, "LastPage": 5, "Type": "PhysicalRef"}]}]}}, {"OID": "IT.IE.IEDTC", "Name": "IEDTC", "DataType": "date", "SASFieldName": "IEDTC", "Description": {"TranslatedText": [{"lang": "en", "_content": "Date/Time of Collection"}]}, "Origin": {"Type": "CRF", "DocumentRef": [{"leafID": "LF.blankcrf", "PDFPageRef": [{"FirstPage": 4, "LastPage": 5, "Type": "PhysicalRef"}]}]}}, {"OID": "IT.IE.IEORRES", "Name": "IEORRES", "DataType": "text", "Length": 1, "SASFieldName": "IEORRES", "Description": {"TranslatedText": [{"lang": "en", "_content": "I/E Criterion Original Result"}]}, "Origin": {"Type": "CRF", "DocumentRef": [{"leafID": "LF.blankcrf", "PDFPageRef": [{"FirstPage": 4, "LastPage": 5, "Type": "PhysicalRef"}]}]}, "ValueListRef": {"ValueListOID": "VL.IE.IEORRES"}}, {"OID": "IT.IE.IEORRES.EXCL01", "Name": "EXCL01", "DataType": "text", "Length": 200, "SASFieldName": "EXCL01", "Description": {"TranslatedText": [{"lang": "en", "_content": "Is pregnant, nursing, or planning to become pregnant within 6 months of last study treatment"}]}, "CodeListRef": {"CodeListOID": "CL.NYNA"}, "Origin": {"Type": "CRF", "DocumentRef": [{"leafID": "LF.blankcrf", "PDFPageRef": [{"PageRefs": "5", "Type": "PhysicalRef"}]}]}}, {"OID": "IT.IE.IEORRES.EXCL02", "Name": "EXCL02", "DataType": "text", "Length": 200, "SASFieldName": "EXCL02", "Description": {"TranslatedText": [{"lang": "en", "_content": "Is unable or unwilling to undergo multiple venipunctures"}]}, "CodeListRef": {"CodeListOID": "CL.NYNA"}, "Origin": {"Type": "CRF", "DocumentRef": [{"leafID": "LF.blankcrf", "PDFPageRef": [{"PageRefs": "5", "Type": "PhysicalRef"}]}]}}, {"OID": "IT.IE.IEORRES.EXCL03", "Name": "EXCL03", "DataType": "text", "Length": 200, "SASFieldName": "EXCL03", "Description": {"TranslatedText": [{"lang": "en", "_content": "Is known to have had a substance abuse (drug or alcohol) problem within the previous 3 years"}]}, "CodeListRef": {"CodeListOID": "CL.NYNA"}, "Origin": {"Type": "CRF", "DocumentRef": [{"leafID": "LF.blankcrf", "PDFPageRef": [{"PageRefs": "5", "Type": "PhysicalRef"}]}]}}, {"OID": "IT.IE.IEORRES.INCL01", "Name": "INCL01", "DataType": "text", "Length": 200, "SASFieldName": "INCL01", "Description": {"TranslatedText": [{"lang": "en", "_content": "Is age 18 - 85"}]}, "CodeListRef": {"CodeListOID": "CL.NYNA"}, "Origin": {"Type": "CRF", "DocumentRef": [{"leafID": "LF.blankcrf", "PDFPageRef": [{"PageRefs": "4", "Type": "PhysicalRef"}]}]}}, {"OID": "IT.IE.IEORRES.INCL02", "Name": "INCL02", "DataType": "text", "Length": 200, "SASFieldName": "INCL02", "Description": {"TranslatedText": [{"lang": "en", "_content": "Has Xyz disease of at least 10 weeks duration confirmed by biopsy"}]}, "CodeListRef": {"CodeListOID": "CL.NYNA"}, "Origin": {"Type": "CRF", "DocumentRef": [{"leafID": "LF.blankcrf", "PDFPageRef": [{"PageRefs": "4", "Type": "PhysicalRef"}]}]}}, {"OID": "IT.IE.IEORRES.INCL03", "Name": "INCL03", "DataType": "text", "Length": 200, "SASFieldName": "INCL03", "Description": {"TranslatedText": [{"lang": "en", "_content": "Did not respond to a standard course of medication Abc"}]}, "CodeListRef": {"CodeListOID": "CL.NYNA"}, "Origin": {"Type": "CRF", "DocumentRef": [{"leafID": "LF.blankcrf", "PDFPageRef": [{"PageRefs": "4", "Type": "PhysicalRef"}]}]}}, {"OID": "IT.IE.IESEQ", "Name": "IESEQ", "DataType": "integer", "Length": 1, "SASFieldName": "IESEQ", "Description": {"TranslatedText": [{"lang": "en", "_content": "Sequence Number"}]}, "Origin": {"Type": "Derived"}}, {"OID": "IT.IE.IESTRESC", "Name": "IESTRESC", "DataType": "text", "Length": 1, "SASFieldName": "IESTRESC", "Description": {"TranslatedText": [{"lang": "en", "_content": "I/E Criterion Result in Std Format"}]}, "Origin": {"Type": "Derived"}}, {"OID": "IT.IE.IETEST", "Name": "IETEST", "DataType": "text", "Length": 54, "SASFieldName": "IETEST", "Description": {"TranslatedText": [{"lang": "en", "_content": "Inclusion/Exclusion Criterion"}]}, "CodeListRef": {"CodeListOID": "CL.IETEST"}, "Origin": {"Type": "CRF", "DocumentRef": [{"leafID": "LF.blankcrf", "PDFPageRef": [{"FirstPage": 4, "LastPage": 5, "Type": "PhysicalRef"}]}]}}, {"OID": "IT.IE.IETESTCD", "Name": "IETESTCD", "DataType": "text", "Length": 6, "SASFieldName": "IETESTCD", "Description": {"TranslatedText": [{"lang": "en", "_content": "Inclusion/Exclusion Criterion Short Name"}]}, "CodeListRef": {"CodeListOID": "CL.IETESTCD"}, "Origin": {"Type": "Assigned"}}, {"OID": "IT.IE.VISIT", "Name": "VISIT", "DataType": "text", "Length": 6, "SASFieldName": "VISIT", "Description": {"TranslatedText": [{"lang": "en", "_content": "Visit Name"}]}, "Origin": {"Type": "Assigned"}}, {"OID": "IT.IE.VISITNUM", "Name": "VISITNUM", "DataType": "integer", "Length": 1, "SASFieldName": "VISITNUM", "CommentOID": "COM.IE.VISITNUM", "Description": {"TranslatedText": [{"lang": "en", "_content": "Visit Number"}]}, "Origin": {"Type": "Assigned"}}, {"OID": "IT.LB.DOMAIN", "Name": "DOMAIN", "DataType": "text", "Length": 2, "SASFieldName": "DOMAIN", "Description": {"TranslatedText": [{"lang": "en", "_content": "Domain Abbreviation"}]}, "CodeListRef": {"CodeListOID": "CL.LB.DOMAIN"}, "Origin": {"Type": "Assigned"}}, {"OID": "IT.LB.LBBLFL", "Name": "LBBLFL", "DataType": "text", "Length": 1, "SASFieldName": "LBBLFL", "Description": {"TranslatedText": [{"lang": "en", "_content": "Baseline Flag"}]}, "CodeListRef": {"CodeListOID": "CL.NY"}, "Origin": {"Type": "Derived"}}, {"OID": "IT.LB.LBCAT", "Name": "LBCAT", "DataType": "text", "Length": 10, "SASFieldName": "LBCAT", "Description": {"TranslatedText": [{"lang": "en", "_content": "Category for Lab Test"}]}, "Origin": {"Type": "eDT"}}, {"OID": "IT.LB.LBDTC", "Name": "LBDTC", "DataType": "datetime", "SASFieldName": "LBDTC", "Description": {"TranslatedText": [{"lang": "en", "_content": "Date/Time of Specimen Collection"}]}, "Origin": {"Type": "eDT"}}, {"OID": "IT.LB.LBDY", "Name": "LBDY", "DataType": "integer", "Length": 3, "SASFieldName": "LBDY", "Description": {"TranslatedText": [{"lang": "en", "_content": "Study Day of Specimen Collection"}]}, "Origin": {"Type": "Derived"}}, {"OID": "IT.LB.LBFAST", "Name": "LBFAST", "DataType": "text", "Length": 1, "SASFieldName": "LBFAST", "Description": {"TranslatedText": [{"lang": "en", "_content": "Fasting Status"}]}, "CodeListRef": {"CodeListOID": "CL.NY"}, "Origin": {"Type": "eDT"}}, {"OID": "IT.LB.LBMETHOD", "Name": "LBMETHOD", "DataType": "text", "Length": 8, "SASFieldName": "LBMETHOD", "Description": {"TranslatedText": [{"lang": "en", "_content": "Method of Test or Examination"}]}, "CodeListRef": {"CodeListOID": "CL.METHOD"}, "Origin": {"Type": "eDT"}}, {"OID": "IT.LB.LBNRIND", "Name": "LBNRIND", "DataType": "text", "Length": 20, "SASFieldName": "LBNRIND", "Description": {"TranslatedText": [{"lang": "en", "_content": "Reference Range Indicator"}]}, "CodeListRef": {"CodeListOID": "CL.NRIND"}, "Origin": {"Type": "Derived"}}, {"OID": "IT.LB.LBORNRHI", "Name": "LBORNRHI", "DataType": "text", "Length": 8, "SASFieldName": "LBORNRHI", "Description": {"TranslatedText": [{"lang": "en", "_content": "Reference Range Upper Limit in Orig Unit"}]}, "Origin": {"Type": "eDT"}}, {"OID": "IT.LB.LBORNRLO", "Name": "LBORNRLO", "DataType": "text", "Length": 8, "SASFieldName": "LBORNRLO", "Description": {"TranslatedText": [{"lang": "en", "_content": "Reference Range Lower Limit in Orig Unit"}]}, "Origin": {"Type": "eDT"}}, {"OID": "IT.LB.LBORRES", "Name": "LBORRES", "DataType": "text", "Length": 8, "SASFieldName": "LBORRES", "Description": {"TranslatedText": [{"lang": "en", "_content": "Result or Finding in Original Units"}]}, "Origin": {"Type": "eDT"}, "ValueListRef": {"ValueListOID": "VL.LB.LBORRES"}}, {"OID": "IT.LB.LBORRES.BILI.LBCAT.CHEMISTRY.LBSPEC.BLOOD", "Name": "BILI", "DataType": "float", "Length": 3, "SignificantDigits": 1, "SASFieldName": "BILI", "Description": {"TranslatedText": [{"lang": "en", "_content": "Bilirubin"}]}, "Origin": {"Type": "eDT"}}, {"OID": "IT.LB.LBORRES.BUN.LBCAT.CHEMISTRY.LBSPEC.BLOOD", "Name": "BUN", "DataType": "float", "Length": 4, "SignificantDigits": 2, "SASFieldName": "BUN", "Description": {"TranslatedText": [{"lang": "en", "_content": "Blood Urea Nitrogen"}]}, "Origin": {"Type": "eDT"}}, {"OID": "IT.LB.LBORRES.GLUC.LBCAT.CHEMISTRY.LBSPEC.BLOOD", "Name": "GLUC", "DataType": "float", "Length": 3, "SignificantDigits": 1, "SASFieldName": "GLUC", "Description": {"TranslatedText": [{"lang": "en", "_content": "Glucose"}]}, "Origin": {"Type": "eDT"}}, {"OID": "IT.LB.LBORRES.GLUC.LBCAT.URINALYSIS.LBSPEC.URINE.LBMETHOD.DIPSTICK", "Name": "GLUC", "DataType": "text", "Length": 8, "SASFieldName": "GLUC", "Description": {"TranslatedText": [{"lang": "en", "_content": "Glucose"}]}, "Origin": {"Type": "eDT"}}, {"OID": "IT.LB.LBORRES.GLUC.LBCAT.URINALYSIS.LBSPEC.URINE.LBMETHOD.QUANT", "Name": "GLUC", "DataType": "text", "Length": 8, "SASFieldName": "GLUC", "Description": {"TranslatedText": [{"lang": "en", "_content": "Glucose"}]}, "Origin": {"Type": "eDT"}}, {"OID": "IT.LB.LBORRES.HCT.LBCAT.HEMATOLOGY.LBSPEC.BLOOD", "Name": "HCT", "DataType": "float", "Length": 4, "SignificantDigits": 2, "SASFieldName": "HCT", "Description": {"TranslatedText": [{"lang": "en", "_content": "Hematocrit"}]}, "Origin": {"Type": "eDT"}}, {"OID": "IT.LB.LBORRES.HGB.LBCAT.HEMATOLOGY.LBSPEC.BLOOD", "Name": "HGB", "DataType": "float", "Length": 4, "SignificantDigits": 2, "SASFieldName": "HGB", "Description": {"TranslatedText": [{"lang": "en", "_content": "Hemoglobin"}]}, "Origin": {"Type": "eDT"}}, {"OID": "IT.LB.LBORRES.LYM.LBCAT.HEMATOLOGY.LBSPEC.BLOOD", "Name": "LYM", "DataType": "float", "Length": 4, "SignificantDigits": 2, "SASFieldName": "LYM", "Description": {"TranslatedText": [{"lang": "en", "_content": "Lymphocytes"}]}, "Origin": {"Type": "eDT"}}, {"OID": "IT.LB.LBORRES.OCCBLD.LBCAT.URINALYSIS.LBSPEC.URINE", "Name": "OCCBLD", "DataType": "text", "Length": 8, "SASFieldName": "OCCBLD", "Description": {"TranslatedText": [{"lang": "en", "_content": "Occult Blood"}]}, "Origin": {"Type": "eDT"}}, {"OID": "IT.LB.LBORRES.PH.LBCAT.URINALYSIS.LBSPEC.URINE", "Name": "PH", "DataType": "float", "Length": 3, "SignificantDigits": 2, "SASFieldName": "PH", "Description": {"TranslatedText": [{"lang": "en", "_content": "pH"}]}, "Origin": {"Type": "eDT"}}, {"OID": "IT.LB.LBORRES.VITB12.LBCAT.CHEMISTRY.LBSPEC.SERUM", "Name": "VITB12", "DataType": "integer", "Length": 3, "SASFieldName": "VITB12", "Description": {"TranslatedText": [{"lang": "en", "_content": "Vitamin B12"}]}, "Origin": {"Type": "eDT"}}, {"OID": "IT.LB.LBORRES.VITB9.LBCAT.CHEMISTRY.LBSPEC.BLOOD", "Name": "VITB9", "DataType": "float", "Length": 5, "SignificantDigits": 1, "SASFieldName": "VITB9", "Description": {"TranslatedText": [{"lang": "en", "_content": "Vitamin B9"}]}, "Origin": {"Type": "eDT"}}, {"OID": "IT.LB.LBORRESU", "Name": "LBORRESU", "DataType": "text", "Length": 7, "SASFieldName": "LBORRESU", "Description": {"TranslatedText": [{"lang": "en", "_content": "Original Units"}]}, "CodeListRef": {"CodeListOID": "CL.LBRESU"}, "Origin": {"Type": "eDT"}}, {"OID": "IT.LB.LBREFID", "Name": "LBREFID", "DataType": "text", "Length": 7, "SASFieldName": "LBREFID", "CommentOID": "COM.LBREFID", "Description": {"TranslatedText": [{"lang": "en", "_content": "Specimen ID"}]}, "Origin": {"Type": "eDT"}}, {"OID": "IT.LB.LBSEQ", "Name": "LBSEQ", "DataType": "integer", "Length": 2, "SASFieldName": "LBSEQ", "Description": {"TranslatedText": [{"lang": "en", "_content": "Sequence Number"}]}, "Origin": {"Type": "Derived"}}, {"OID": "IT.LB.LBSPEC", "Name": "LBSPEC", "DataType": "text", "Length": 5, "SASFieldName": "LBSPEC", "Description": {"TranslatedText": [{"lang": "en", "_content": "Specimen Type"}]}, "CodeListRef": {"CodeListOID": "CL.SPECTYPE"}, "Origin": {"Type": "eDT"}}, {"OID": "IT.LB.LBSTNRC", "Name": "LBSTNRC", "DataType": "text", "Length": 19, "SASFieldName": "LBSTNRC", "Description": {"TranslatedText": [{"lang": "en", "_content": "Reference Range for Char Rslt-Std Units"}]}, "Origin": {"Type": "eDT"}}, {"OID": "IT.LB.LBSTNRHI", "Name": "LBSTNRHI", "DataType": "float", "Length": 4, "SignificantDigits": 2, "DisplayFormat": "4.2", "SASFieldName": "LBSTNRHI", "Description": {"TranslatedText": [{"lang": "en", "_content": "Reference Range Upper Limit-Std Units"}]}, "Origin": {"Type": "eDT"}}, {"OID": "IT.LB.LBSTNRLO", "Name": "LBSTNRLO", "DataType": "float", "Length": 4, "SignificantDigits": 2, "DisplayFormat": "4.2", "SASFieldName": "LBSTNRLO", "Description": {"TranslatedText": [{"lang": "en", "_content": "Reference Range Lower Limit-Std Units"}]}, "Origin": {"Type": "eDT"}}, {"OID": "IT.LB.LBSTRESC", "Name": "LBSTRESC", "DataType": "text", "Length": 8, "SASFieldName": "LBSTRESC", "Description": {"TranslatedText": [{"lang": "en", "_content": "Character Result/Finding in Std Format"}]}, "Origin": {"Type": "eDT"}}, {"OID": "IT.LB.LBSTRESN", "Name": "LBSTRESN", "DataType": "float", "Length": 5, "SignificantDigits": 2, "DisplayFormat": "5.2", "SASFieldName": "LBSTRESN", "Description": {"TranslatedText": [{"lang": "en", "_content": "Numeric Result/Finding in Standard Units"}]}, "Origin": {"Type": "eDT"}}, {"OID": "IT.LB.LBSTRESU", "Name": "LBSTRESU", "DataType": "text", "Length": 7, "SASFieldName": "LBSTRESU", "Description": {"TranslatedText": [{"lang": "en", "_content": "Standard Units"}]}, "Origin": {"Type": "eDT"}}, {"OID": "IT.LB.LBTEST", "Name": "LBTEST", "DataType": "text", "Length": 22, "SASFieldName": "LBTEST", "Description": {"TranslatedText": [{"lang": "en", "_content": "Lab Test or Examination Name"}]}, "CodeListRef": {"CodeListOID": "CL.LBTEST"}, "Origin": {"Type": "eDT"}}, {"OID": "IT.LB.LBTESTCD", "Name": "LBTESTCD", "DataType": "text", "Length": 7, "SASFieldName": "LBTESTCD", "Description": {"TranslatedText": [{"lang": "en", "_content": "Lab Test or Examination Short Name"}]}, "CodeListRef": {"CodeListOID": "CL.LBTESTCD"}, "Origin": {"Type": "Assigned"}}, {"OID": "IT.LB.VISIT", "Name": "VISIT", "DataType": "text", "Length": 7, "SASFieldName": "VISIT", "Description": {"TranslatedText": [{"lang": "en", "_content": "Visit Name"}]}, "Origin": {"Type": "eDT"}}, {"OID": "IT.LB.VISITDY", "Name": "VISITDY", "DataType": "integer", "Length": 3, "SASFieldName": "VISITDY", "Description": {"TranslatedText": [{"lang": "en", "_content": "Planned Study Day of Visit"}]}, "Origin": {"Type": "Protocol"}}, {"OID": "IT.LB.VISITNUM", "Name": "VISITNUM", "DataType": "integer", "Length": 2, "SASFieldName": "VISITNUM", "Description": {"TranslatedText": [{"lang": "en", "_content": "Visit Number"}]}, "Origin": {"Type": "eDT"}}, {"OID": "IT.MH.DOMAIN", "Name": "DOMAIN", "DataType": "text", "Length": 2, "SASFieldName": "DOMAIN", "Description": {"TranslatedText": [{"lang": "en", "_content": "Domain Abbreviation"}]}, "CodeListRef": {"CodeListOID": "CL.MH.DOMAIN"}, "Origin": {"Type": "Assigned"}}, {"OID": "IT.MH.MHBODSYS", "Name": "MHBODSYS", "DataType": "text", "Length": 23, "SASFieldName": "MHBODSYS", "CommentOID": "COM.MHBODSYS", "Description": {"TranslatedText": [{"lang": "en", "_content": "Body System or Organ Class"}]}, "CodeListRef": {"CodeListOID": "CL.MHBODSYS"}, "Origin": {"Type": "Assigned"}}, {"OID": "IT.MH.MHCAT", "Name": "MHCAT", "DataType": "text", "Length": 28, "SASFieldName": "MHCAT", "Description": {"TranslatedText": [{"lang": "en", "_content": "Category for Medical History"}]}, "CodeListRef": {"CodeListOID": "CL.MHCAT"}, "Origin": {"Type": "CRF", "DocumentRef": [{"leafID": "LF.blankcrf", "PDFPageRef": [{"FirstPage": 7, "LastPage": 8, "Type": "PhysicalRef"}]}]}}, {"OID": "IT.MH.MHDTC", "Name": "MHDTC", "DataType": "date", "SASFieldName": "MHDTC", "Description": {"TranslatedText": [{"lang": "en", "_content": "Date/Time of History Collection"}]}, "Origin": {"Type": "CRF", "DocumentRef": [{"leafID": "LF.blankcrf", "PDFPageRef": [{"FirstPage": 7, "LastPage": 8, "Type": "PhysicalRef"}]}]}}, {"OID": "IT.MH.MHENRF", "Name": "MHENRF", "DataType": "text", "Length": 30, "SASFieldName": "MHENRF", "CommentOID": "COM.MHENRF", "Description": {"TranslatedText": [{"lang": "en", "_content": "End Relative to Reference Period"}]}, "CodeListRef": {"CodeListOID": "CL.MHENRF"}, "Origin": {"Type": "CRF", "DocumentRef": [{"leafID": "LF.blankcrf", "PDFPageRef": [{"PageRefs": "8", "Type": "PhysicalRef"}]}]}}, {"OID": "IT.MH.MHOCCUR", "Name": "MHOCCUR", "DataType": "text", "Length": 2, "SASFieldName": "MHOCCUR", "Description": {"TranslatedText": [{"lang": "en", "_content": "Medical History Occurrence"}]}, "CodeListRef": {"CodeListOID": "CL.NY"}, "Origin": {"Type": "Assigned"}}, {"OID": "IT.MH.MHPRESP", "Name": "MHPRESP", "DataType": "text", "Length": 2, "SASFieldName": "MHPRESP", "Description": {"TranslatedText": [{"lang": "en", "_content": "Medical History Event Pre-Specified"}]}, "CodeListRef": {"CodeListOID": "CL.NY"}, "Origin": {"Type": "Assigned"}}, {"OID": "IT.MH.MHSEQ", "Name": "MHSEQ", "DataType": "integer", "Length": 1, "SASFieldName": "MHSEQ", "Description": {"TranslatedText": [{"lang": "en", "_content": "Sequence Number"}]}, "Origin": {"Type": "Derived"}}, {"OID": "IT.MH.MHSTDTC", "Name": "MHSTDTC", "DataType": "date", "SASFieldName": "MHSTDTC", "Description": {"TranslatedText": [{"lang": "en", "_content": "Start Date/Time of Medical History Event"}]}, "Origin": {"Type": "CRF", "DocumentRef": [{"leafID": "LF.blankcrf", "PDFPageRef": [{"FirstPage": 7, "LastPage": 8, "Type": "PhysicalRef"}]}]}}, {"OID": "IT.MH.MHTERM", "Name": "MHTERM", "DataType": "text", "Length": 169, "SASFieldName": "MHTERM", "Description": {"TranslatedText": [{"lang": "en", "_content": "Reported Term for the Medical History"}]}, "Origin": {"Type": "CRF", "DocumentRef": [{"leafID": "LF.blankcrf", "PDFPageRef": [{"FirstPage": 7, "LastPage": 8, "Type": "PhysicalRef"}]}]}}, {"OID": "IT.PE.DOMAIN", "Name": "DOMAIN", "DataType": "text", "Length": 2, "SASFieldName": "DOMAIN", "Description": {"TranslatedText": [{"lang": "en", "_content": "Domain Abbreviation"}]}, "CodeListRef": {"CodeListOID": "CL.PE.DOMAIN"}, "Origin": {"Type": "Assigned"}}, {"OID": "IT.PE.PEDTC", "Name": "PEDTC", "DataType": "date", "SASFieldName": "PEDTC", "Description": {"TranslatedText": [{"lang": "en", "_content": "Date/Time of Examination"}]}, "Origin": {"Type": "CRF", "DocumentRef": [{"leafID": "LF.blankcrf", "PDFPageRef": [{"PageRefs": "10", "Type": "PhysicalRef"}]}]}}, {"OID": "IT.PE.PEDY", "Name": "PEDY", "DataType": "integer", "Length": 3, "SASFieldName": "PEDY", "Description": {"TranslatedText": [{"lang": "en", "_content": "Study Day of Examination"}]}, "Origin": {"Type": "Derived"}}, {"OID": "IT.PE.PEORRES", "Name": "PEORRES", "DataType": "text", "Length": 36, "SASFieldName": "PEORRES", "Description": {"TranslatedText": [{"lang": "en", "_content": "Verbatim Examination Finding"}]}, "Origin": {"Type": "CRF", "DocumentRef": [{"leafID": "LF.blankcrf", "PDFPageRef": [{"PageRefs": "10", "Type": "PhysicalRef"}]}]}, "ValueListRef": {"ValueListOID": "VL.PE.PEORRES"}}, {"OID": "IT.PE.PEORRES.PE01", "Name": "PE01", "DataType": "text", "Length": 16, "SASFieldName": "PE01", "Description": {"TranslatedText": [{"lang": "en", "_content": "Appearance/Skin"}]}, "Origin": {"Type": "CRF", "DocumentRef": [{"leafID": "LF.blankcrf", "PDFPageRef": [{"PageRefs": "10", "Type": "PhysicalRef"}]}]}}, {"OID": "IT.PE.PEORRES.PE02", "Name": "PE02", "DataType": "text", "Length": 6, "SASFieldName": "PE02", "Description": {"TranslatedText": [{"lang": "en", "_content": "Head/Neck (Including Thyroid)"}]}, "Origin": {"Type": "CRF", "DocumentRef": [{"leafID": "LF.blankcrf", "PDFPageRef": [{"PageRefs": "10", "Type": "PhysicalRef"}]}]}}, {"OID": "IT.PE.PEORRES.PE03", "Name": "PE03", "DataType": "text", "Length": 13, "SASFieldName": "PE03", "Description": {"TranslatedText": [{"lang": "en", "_content": "Eyes-Ears-Nose-Throat"}]}, "Origin": {"Type": "CRF", "DocumentRef": [{"leafID": "LF.blankcrf", "PDFPageRef": [{"PageRefs": "10", "Type": "PhysicalRef"}]}]}}, {"OID": "IT.PE.PEORRES.PE04", "Name": "PE04", "DataType": "text", "Length": 20, "SASFieldName": "PE04", "Description": {"TranslatedText": [{"lang": "en", "_content": "Cardiovascular"}]}, "Origin": {"Type": "CRF", "DocumentRef": [{"leafID": "LF.blankcrf", "PDFPageRef": [{"PageRefs": "10", "Type": "PhysicalRef"}]}]}}, {"OID": "IT.PE.PEORRES.PE05", "Name": "PE05", "DataType": "text", "Length": 6, "SASFieldName": "PE05", "Description": {"TranslatedText": [{"lang": "en", "_content": "Pulmonary"}]}, "Origin": {"Type": "CRF", "DocumentRef": [{"leafID": "LF.blankcrf", "PDFPageRef": [{"PageRefs": "10", "Type": "PhysicalRef"}]}]}}, {"OID": "IT.PE.PEORRES.PE06", "Name": "PE06", "DataType": "text", "Length": 6, "SASFieldName": "PE06", "Description": {"TranslatedText": [{"lang": "en", "_content": "Abdomen"}]}, "Origin": {"Type": "CRF", "DocumentRef": [{"leafID": "LF.blankcrf", "PDFPageRef": [{"PageRefs": "10", "Type": "PhysicalRef"}]}]}}, {"OID": "IT.PE.PEORRES.PE07", "Name": "PE07", "DataType": "text", "Length": 26, "SASFieldName": "PE07", "Description": {"TranslatedText": [{"lang": "en", "_content": "Neurological"}]}, "Origin": {"Type": "CRF", "DocumentRef": [{"leafID": "LF.blankcrf", "PDFPageRef": [{"PageRefs": "10", "Type": "PhysicalRef"}]}]}}, {"OID": "IT.PE.PEORRES.PE08", "Name": "PE08", "DataType": "text", "Length": 6, "SASFieldName": "PE08", "Description": {"TranslatedText": [{"lang": "en", "_content": "Musculoskeletal"}]}, "Origin": {"Type": "CRF", "DocumentRef": [{"leafID": "LF.blankcrf", "PDFPageRef": [{"PageRefs": "10", "Type": "PhysicalRef"}]}]}}, {"OID": "IT.PE.PEORRES.PE09", "Name": "PE09", "DataType": "text", "Length": 19, "SASFieldName": "PE09", "Description": {"TranslatedText": [{"lang": "en", "_content": "Other"}]}, "Origin": {"Type": "CRF", "DocumentRef": [{"leafID": "LF.blankcrf", "PDFPageRef": [{"PageRefs": "10", "Type": "PhysicalRef"}]}]}}, {"OID": "IT.PE.PESEQ", "Name": "PESEQ", "DataType": "integer", "Length": 2, "SASFieldName": "PESEQ", "Description": {"TranslatedText": [{"lang": "en", "_content": "Sequence Number"}]}, "Origin": {"Type": "Derived"}}, {"OID": "IT.PE.PESTRESC", "Name": "PESTRESC", "DataType": "text", "Length": 26, "SASFieldName": "PESTRESC", "Description": {"TranslatedText": [{"lang": "en", "_content": "Character Result/Finding in Std Format"}]}, "Origin": {"Type": "Derived"}}, {"OID": "IT.PE.PETEST", "Name": "PETEST", "DataType": "text", "Length": 29, "SASFieldName": "PETEST", "Description": {"TranslatedText": [{"lang": "en", "_content": "Body System Examined"}]}, "CodeListRef": {"CodeListOID": "CL.PETEST"}, "Origin": {"Type": "CRF", "DocumentRef": [{"leafID": "LF.blankcrf", "PDFPageRef": [{"PageRefs": "10", "Type": "PhysicalRef"}]}]}}, {"OID": "IT.PE.PETESTCD", "Name": "PETESTCD", "DataType": "text", "Length": 4, "SASFieldName": "PETESTCD", "Description": {"TranslatedText": [{"lang": "en", "_content": "Body System Examined Short Name"}]}, "CodeListRef": {"CodeListOID": "CL.PETESTCD"}, "Origin": {"Type": "Assigned"}}, {"OID": "IT.PE.VISIT", "Name": "VISIT", "DataType": "text", "Length": 7, "SASFieldName": "VISIT", "Description": {"TranslatedText": [{"lang": "en", "_content": "Visit Name"}]}, "Origin": {"Type": "Assigned"}}, {"OID": "IT.PE.VISITDY", "Name": "VISITDY", "DataType": "integer", "Length": 3, "SASFieldName": "VISITDY", "Description": {"TranslatedText": [{"lang": "en", "_content": "Planned Study Day of Visit"}]}, "Origin": {"Type": "Protocol"}}, {"OID": "IT.PE.VISITNUM", "Name": "VISITNUM", "DataType": "integer", "Length": 2, "SASFieldName": "VISITNUM", "CommentOID": "COM.PE.VISITNUM", "Description": {"TranslatedText": [{"lang": "en", "_content": "Visit Number"}]}, "Origin": {"Type": "Assigned"}}, {"OID": "IT.QS.DOMAIN", "Name": "DOMAIN", "DataType": "text", "Length": 2, "SASFieldName": "DOMAIN", "Description": {"TranslatedText": [{"lang": "en", "_content": "Domain Abbreviation"}]}, "CodeListRef": {"CodeListOID": "CL.QS.DOMAIN"}, "Origin": {"Type": "Assigned"}}, {"OID": "IT.QS.QSBLFL", "Name": "QSBLFL", "DataType": "text", "Length": 1, "SASFieldName": "QSBLFL", "Description": {"TranslatedText": [{"lang": "en", "_content": "Baseline Flag"}]}, "CodeListRef": {"CodeListOID": "CL.NY"}, "Origin": {"Type": "Derived"}}, {"OID": "IT.QS.QSCAT", "Name": "QSCAT", "DataType": "text", "Length": 50, "SASFieldName": "QSCAT", "Description": {"TranslatedText": [{"lang": "en", "_content": "Category of Question"}]}, "Origin": {"Type": "CRF", "DocumentRef": [{"leafID": "LF.blankcrf", "PDFPageRef": [{"PageRefs": "17", "Type": "PhysicalRef"}]}]}}, {"OID": "IT.QS.QSDTC", "Name": "QSDTC", "DataType": "date", "SASFieldName": "QSDTC", "Description": {"TranslatedText": [{"lang": "en", "_content": "Date/Time of Finding"}]}, "Origin": {"Type": "CRF", "DocumentRef": [{"leafID": "LF.blankcrf", "PDFPageRef": [{"PageRefs": "17", "Type": "PhysicalRef"}]}]}}, {"OID": "IT.QS.QSDY", "Name": "QSDY", "DataType": "integer", "Length": 3, "SASFieldName": "QSDY", "Description": {"TranslatedText": [{"lang": "en", "_content": "Study Day of Finding"}]}, "Origin": {"Type": "Derived"}}, {"OID": "IT.QS.QSEVLINT", "Name": "QSEVLINT", "DataType": "text", "Length": 20, "SASFieldName": "QSEVLINT", "Description": {"TranslatedText": [{"lang": "en", "_content": "Evaluation Interval"}]}, "Origin": {"Type": "CRF", "DocumentRef": [{"leafID": "LF.blankcrf", "PDFPageRef": [{"PageRefs": "14", "Type": "PhysicalRef"}]}]}}, {"OID": "IT.QS.QSORRES", "Name": "QSORRES", "DataType": "text", "Length": 20, "SASFieldName": "QSORRES", "Description": {"TranslatedText": [{"lang": "en", "_content": "Finding in Original Units"}]}, "Origin": {"Type": "CRF", "DocumentRef": [{"leafID": "LF.blankcrf", "PDFPageRef": [{"PageRefs": "17", "Type": "PhysicalRef"}]}]}, "ValueListRef": {"ValueListOID": "VL.QS.QSORRES"}}, {"OID": "IT.QS.QSORRES.CGIGLOB", "Name": "CGIGLOB", "DataType": "integer", "Length": 1, "SASFieldName": "CGIGLOB", "Description": {"TranslatedText": [{"lang": "en", "_content": "Global Improvement"}]}, "CodeListRef": {"CodeListOID": "CL.CGIIMP_X"}, "Origin": {"Type": "CRF", "DocumentRef": [{"leafID": "LF.blankcrf", "PDFPageRef": [{"PageRefs": "17", "Type": "PhysicalRef"}]}]}}, {"OID": "IT.QS.QSORRES.CSDD01", "Name": "CSDD01", "DataType": "integer", "Length": 1, "SASFieldName": "CSDD01", "Description": {"TranslatedText": [{"lang": "en", "_content": "Anxiety"}]}, "CodeListRef": {"CodeListOID": "CL.CUE_EXPF_X"}, "Origin": {"Type": "CRF", "DocumentRef": [{"leafID": "LF.blankcrf", "PDFPageRef": [{"PageRefs": "14", "Type": "PhysicalRef"}]}]}}, {"OID": "IT.QS.QSORRES.CSDD02", "Name": "CSDD02", "DataType": "integer", "Length": 1, "SASFieldName": "CSDD02", "Description": {"TranslatedText": [{"lang": "en", "_content": "Sadness"}]}, "CodeListRef": {"CodeListOID": "CL.CUE_EXPF_X"}, "Origin": {"Type": "CRF", "DocumentRef": [{"leafID": "LF.blankcrf", "PDFPageRef": [{"PageRefs": "14", "Type": "PhysicalRef"}]}]}}, {"OID": "IT.QS.QSORRES.CSDD03", "Name": "CSDD03", "DataType": "integer", "Length": 1, "SASFieldName": "CSDD03", "Description": {"TranslatedText": [{"lang": "en", "_content": "Lack of Reactivity to Pleasant Events"}]}, "CodeListRef": {"CodeListOID": "CL.CUE_EXPF_X"}, "Origin": {"Type": "CRF", "DocumentRef": [{"leafID": "LF.blankcrf", "PDFPageRef": [{"PageRefs": "14", "Type": "PhysicalRef"}]}]}}, {"OID": "IT.QS.QSORRES.CSDD04", "Name": "CSDD04", "DataType": "integer", "Length": 1, "SASFieldName": "CSDD04", "Description": {"TranslatedText": [{"lang": "en", "_content": "Irritability"}]}, "CodeListRef": {"CodeListOID": "CL.CUE_EXPF_X"}, "Origin": {"Type": "CRF", "DocumentRef": [{"leafID": "LF.blankcrf", "PDFPageRef": [{"PageRefs": "14", "Type": "PhysicalRef"}]}]}}, {"OID": "IT.QS.QSORRES.CSDD05", "Name": "CSDD05", "DataType": "integer", "Length": 1, "SASFieldName": "CSDD05", "Description": {"TranslatedText": [{"lang": "en", "_content": "Agitation"}]}, "CodeListRef": {"CodeListOID": "CL.CUE_EXPF_X"}, "Origin": {"Type": "CRF", "DocumentRef": [{"leafID": "LF.blankcrf", "PDFPageRef": [{"PageRefs": "14", "Type": "PhysicalRef"}]}]}}, {"OID": "IT.QS.QSORRES.CSDD06", "Name": "CSDD06", "DataType": "integer", "Length": 1, "SASFieldName": "CSDD06", "Description": {"TranslatedText": [{"lang": "en", "_content": "Retardation"}]}, "CodeListRef": {"CodeListOID": "CL.CUE_EXPF_X"}, "Origin": {"Type": "CRF", "DocumentRef": [{"leafID": "LF.blankcrf", "PDFPageRef": [{"PageRefs": "14", "Type": "PhysicalRef"}]}]}}, {"OID": "IT.QS.QSORRES.CSDD07", "Name": "CSDD07", "DataType": "integer", "Length": 1, "SASFieldName": "CSDD07", "Description": {"TranslatedText": [{"lang": "en", "_content": "Multiple Physical Complaints"}]}, "CodeListRef": {"CodeListOID": "CL.CUE_EXPF_X"}, "Origin": {"Type": "CRF", "DocumentRef": [{"leafID": "LF.blankcrf", "PDFPageRef": [{"PageRefs": "14", "Type": "PhysicalRef"}]}]}}, {"OID": "IT.QS.QSORRES.CSDD08", "Name": "CSDD08", "DataType": "integer", "Length": 1, "SASFieldName": "CSDD08", "Description": {"TranslatedText": [{"lang": "en", "_content": "Loss of Interest"}]}, "CodeListRef": {"CodeListOID": "CL.CUE_EXPF_X"}, "Origin": {"Type": "CRF", "DocumentRef": [{"leafID": "LF.blankcrf", "PDFPageRef": [{"PageRefs": "14", "Type": "PhysicalRef"}]}]}}, {"OID": "IT.QS.QSORRES.CSDD09", "Name": "CSDD09", "DataType": "integer", "Length": 1, "SASFieldName": "CSDD09", "Description": {"TranslatedText": [{"lang": "en", "_content": "Appetite Loss"}]}, "CodeListRef": {"CodeListOID": "CL.CUE_EXPF_X"}, "Origin": {"Type": "CRF", "DocumentRef": [{"leafID": "LF.blankcrf", "PDFPageRef": [{"PageRefs": "15", "Type": "PhysicalRef"}]}]}}, {"OID": "IT.QS.QSORRES.CSDD10", "Name": "CSDD10", "DataType": "integer", "Length": 1, "SASFieldName": "CSDD10", "Description": {"TranslatedText": [{"lang": "en", "_content": "Weight Loss"}]}, "CodeListRef": {"CodeListOID": "CL.CUE_EXPF_X"}, "Origin": {"Type": "CRF", "DocumentRef": [{"leafID": "LF.blankcrf", "PDFPageRef": [{"PageRefs": "15", "Type": "PhysicalRef"}]}]}}, {"OID": "IT.QS.QSORRES.CSDD11", "Name": "CSDD11", "DataType": "integer", "Length": 1, "SASFieldName": "CSDD11", "Description": {"TranslatedText": [{"lang": "en", "_content": "Lack of Energy"}]}, "CodeListRef": {"CodeListOID": "CL.CUE_EXPF_X"}, "Origin": {"Type": "CRF", "DocumentRef": [{"leafID": "LF.blankcrf", "PDFPageRef": [{"PageRefs": "15", "Type": "PhysicalRef"}]}]}}, {"OID": "IT.QS.QSORRES.CSDD12", "Name": "CSDD12", "DataType": "integer", "Length": 1, "SASFieldName": "CSDD12", "Description": {"TranslatedText": [{"lang": "en", "_content": "Diurnal Variation of Mood"}]}, "CodeListRef": {"CodeListOID": "CL.CUE_EXPF_X"}, "Origin": {"Type": "CRF", "DocumentRef": [{"leafID": "LF.blankcrf", "PDFPageRef": [{"PageRefs": "15", "Type": "PhysicalRef"}]}]}}, {"OID": "IT.QS.QSORRES.CSDD13", "Name": "CSDD13", "DataType": "integer", "Length": 1, "SASFieldName": "CSDD13", "Description": {"TranslatedText": [{"lang": "en", "_content": "Difficulty Falling Asleep"}]}, "CodeListRef": {"CodeListOID": "CL.CUE_EXPF_X"}, "Origin": {"Type": "CRF", "DocumentRef": [{"leafID": "LF.blankcrf", "PDFPageRef": [{"PageRefs": "15", "Type": "PhysicalRef"}]}]}}, {"OID": "IT.QS.QSORRES.CSDD14", "Name": "CSDD14", "DataType": "integer", "Length": 1, "SASFieldName": "CSDD14", "Description": {"TranslatedText": [{"lang": "en", "_content": "Multiple Awakenings During Sleep"}]}, "CodeListRef": {"CodeListOID": "CL.CUE_EXPF_X"}, "Origin": {"Type": "CRF", "DocumentRef": [{"leafID": "LF.blankcrf", "PDFPageRef": [{"PageRefs": "15", "Type": "PhysicalRef"}]}]}}, {"OID": "IT.QS.QSORRES.CSDD15", "Name": "CSDD15", "DataType": "integer", "Length": 1, "SASFieldName": "CSDD15", "Description": {"TranslatedText": [{"lang": "en", "_content": "Early Morning Awakening"}]}, "CodeListRef": {"CodeListOID": "CL.CUE_EXPF_X"}, "Origin": {"Type": "CRF", "DocumentRef": [{"leafID": "LF.blankcrf", "PDFPageRef": [{"PageRefs": "15", "Type": "PhysicalRef"}]}]}}, {"OID": "IT.QS.QSORRES.CSDD16", "Name": "CSDD16", "DataType": "integer", "Length": 1, "SASFieldName": "CSDD16", "Description": {"TranslatedText": [{"lang": "en", "_content": "Suicide"}]}, "CodeListRef": {"CodeListOID": "CL.CUE_EXPF_X"}, "Origin": {"Type": "CRF", "DocumentRef": [{"leafID": "LF.blankcrf", "PDFPageRef": [{"PageRefs": "15", "Type": "PhysicalRef"}]}]}}, {"OID": "IT.QS.QSORRES.CSDD17", "Name": "CSDD17", "DataType": "integer", "Length": 1, "SASFieldName": "CSDD17", "Description": {"TranslatedText": [{"lang": "en", "_content": "Poor Self-Esteem"}]}, "CodeListRef": {"CodeListOID": "CL.CUE_EXPF_X"}, "Origin": {"Type": "CRF", "DocumentRef": [{"leafID": "LF.blankcrf", "PDFPageRef": [{"PageRefs": "15", "Type": "PhysicalRef"}]}]}}, {"OID": "IT.QS.QSORRES.CSDD18", "Name": "CSDD18", "DataType": "integer", "Length": 1, "SASFieldName": "CSDD18", "Description": {"TranslatedText": [{"lang": "en", "_content": "Pessimism"}]}, "CodeListRef": {"CodeListOID": "CL.CUE_EXPF_X"}, "Origin": {"Type": "CRF", "DocumentRef": [{"leafID": "LF.blankcrf", "PDFPageRef": [{"PageRefs": "15", "Type": "PhysicalRef"}]}]}}, {"OID": "IT.QS.QSORRES.CSDD19", "Name": "CSDD19", "DataType": "integer", "Length": 1, "SASFieldName": "CSDD19", "Description": {"TranslatedText": [{"lang": "en", "_content": "Mood-Congruent Delusions"}]}, "CodeListRef": {"CodeListOID": "CL.CUE_EXPF_X"}, "Origin": {"Type": "CRF", "DocumentRef": [{"leafID": "LF.blankcrf", "PDFPageRef": [{"PageRefs": "15", "Type": "PhysicalRef"}]}]}}, {"OID": "IT.QS.QSORRES.CSDDTOT", "Name": "CSDDTOT", "DataType": "integer", "Length": 2, "SASFieldName": "CSDDTOT", "Description": {"TranslatedText": [{"lang": "en", "_content": "Total Score"}]}, "Origin": {"Type": "CRF", "DocumentRef": [{"leafID": "LF.blankcrf", "PDFPageRef": [{"PageRefs": "15", "Type": "PhysicalRef"}]}]}}, {"OID": "IT.QS.QSORRES.MMSEA1", "Name": "MMSEA1", "DataType": "integer", "Length": 1, "SASFieldName": "MMSEA1", "Description": {"TranslatedText": [{"lang": "en", "_content": "Orientation time score"}]}, "Origin": {"Type": "CRF", "DocumentRef": [{"leafID": "LF.blankcrf", "PDFPageRef": [{"PageRefs": "13", "Type": "PhysicalRef"}]}]}}, {"OID": "IT.QS.QSORRES.MMSEA2", "Name": "MMSEA2", "DataType": "integer", "Length": 1, "SASFieldName": "MMSEA2", "Description": {"TranslatedText": [{"lang": "en", "_content": "Orientation place score"}]}, "Origin": {"Type": "CRF", "DocumentRef": [{"leafID": "LF.blankcrf", "PDFPageRef": [{"PageRefs": "13", "Type": "PhysicalRef"}]}]}}, {"OID": "IT.QS.QSORRES.MMSEB", "Name": "MMSEB", "DataType": "integer", "Length": 1, "SASFieldName": "MMSEB", "Description": {"TranslatedText": [{"lang": "en", "_content": "Registration"}]}, "Origin": {"Type": "CRF", "DocumentRef": [{"leafID": "LF.blankcrf", "PDFPageRef": [{"PageRefs": "13", "Type": "PhysicalRef"}]}]}}, {"OID": "IT.QS.QSORRES.MMSEC", "Name": "MMSEC", "DataType": "integer", "Length": 1, "SASFieldName": "MMSEC", "Description": {"TranslatedText": [{"lang": "en", "_content": "Attention and Calculation"}]}, "Origin": {"Type": "CRF", "DocumentRef": [{"leafID": "LF.blankcrf", "PDFPageRef": [{"PageRefs": "13", "Type": "PhysicalRef"}]}]}}, {"OID": "IT.QS.QSORRES.MMSED", "Name": "MMSED", "DataType": "integer", "Length": 1, "SASFieldName": "MMSED", "Description": {"TranslatedText": [{"lang": "en", "_content": "Recall"}]}, "Origin": {"Type": "CRF", "DocumentRef": [{"leafID": "LF.blankcrf", "PDFPageRef": [{"PageRefs": "13", "Type": "PhysicalRef"}]}]}}, {"OID": "IT.QS.QSORRES.MMSEET", "Name": "MMSEET", "DataType": "integer", "Length": 1, "SASFieldName": "MMSEET", "Description": {"TranslatedText": [{"lang": "en", "_content": "Language"}]}, "Origin": {"Type": "CRF", "DocumentRef": [{"leafID": "LF.blankcrf", "PDFPageRef": [{"PageRefs": "13", "Type": "PhysicalRef"}]}]}}, {"OID": "IT.QS.QSORRES.MMSETOT", "Name": "MMSETOT", "DataType": "integer", "Length": 2, "SASFieldName": "MMSETOT", "Description": {"TranslatedText": [{"lang": "en", "_content": "Total Score"}]}, "Origin": {"Type": "CRF", "DocumentRef": [{"leafID": "LF.blankcrf", "PDFPageRef": [{"PageRefs": "13", "Type": "PhysicalRef"}]}]}}, {"OID": "IT.QS.QSSCAT", "Name": "QSSCAT", "DataType": "text", "Length": 40, "SASFieldName": "QSSCAT", "Description": {"TranslatedText": [{"lang": "en", "_content": "Subcategory for Question"}]}, "Origin": {"Type": "CRF", "DocumentRef": [{"leafID": "LF.blankcrf", "PDFPageRef": [{"FirstPage": 14, "LastPage": 15, "Type": "PhysicalRef"}]}]}}, {"OID": "IT.QS.QSSEQ", "Name": "QSSEQ", "DataType": "integer", "Length": 3, "SASFieldName": "QSSEQ", "Description": {"TranslatedText": [{"lang": "en", "_content": "Sequence Number"}]}, "Origin": {"Type": "Derived"}}, {"OID": "IT.QS.QSSTRESC", "Name": "QSSTRESC", "DataType": "text", "Length": 2, "SASFieldName": "QSSTRESC", "Description": {"TranslatedText": [{"lang": "en", "_content": "Character Result/Finding in Std Format"}]}, "Origin": {"Type": "Derived"}}, {"OID": "IT.QS.QSSTRESN", "Name": "QSSTRESN", "DataType": "integer", "Length": 2, "SASFieldName": "QSSTRESN", "Description": {"TranslatedText": [{"lang": "en", "_content": "Numeric Finding in Standard Units"}]}, "Origin": {"Type": "Derived"}}, {"OID": "IT.QS.QSTEST", "Name": "QSTEST", "DataType": "text", "Length": 37, "SASFieldName": "QSTEST", "Description": {"TranslatedText": [{"lang": "en", "_content": "Question Name"}]}, "CodeListRef": {"CodeListOID": "CL.QSTEST"}, "Origin": {"Type": "CRF", "DocumentRef": [{"leafID": "LF.blankcrf", "PDFPageRef": [{"PageRefs": "17", "Type": "PhysicalRef"}]}]}}, {"OID": "IT.QS.QSTESTCD", "Name": "QSTESTCD", "DataType": "text", "Length": 7, "SASFieldName": "QSTESTCD", "Description": {"TranslatedText": [{"lang": "en", "_content": "Question Short Name"}]}, "CodeListRef": {"CodeListOID": "CL.QSTESTCD"}, "Origin": {"Type": "Assigned"}}, {"OID": "IT.QS.VISIT", "Name": "VISIT", "DataType": "text", "Length": 8, "SASFieldName": "VISIT", "Description": {"TranslatedText": [{"lang": "en", "_content": "Visit Name"}]}, "Origin": {"Type": "Assigned"}}, {"OID": "IT.QS.VISITDY", "Name": "VISITDY", "DataType": "integer", "Length": 3, "SASFieldName": "VISITDY", "Description": {"TranslatedText": [{"lang": "en", "_content": "Planned Study Day of Visit"}]}, "Origin": {"Type": "Protocol"}}, {"OID": "IT.QS.VISITNUM", "Name": "VISITNUM", "DataType": "integer", "Length": 2, "SASFieldName": "VISITNUM", "CommentOID": "COM.QS.VISITNUM", "Description": {"TranslatedText": [{"lang": "en", "_content": "Visit Number"}]}, "Origin": {"Type": "Assigned"}}, {"OID": "IT.RDOMAIN", "Name": "RDOMAIN", "DataType": "text", "Length": 2, "SASFieldName": "RDOMAIN", "Description": {"TranslatedText": [{"lang": "en", "_content": "Related Domain Abbreviation"}]}, "Origin": {"Type": "Derived"}}, {"OID": "IT.RELREC.IDVAR", "Name": "IDVAR", "DataType": "text", "Length": 8, "SASFieldName": "IDVAR", "CommentOID": "COM.IDVAR", "Description": {"TranslatedText": [{"lang": "en", "_content": "Identifying Variable"}]}, "Origin": {"Type": "Assigned"}}, {"OID": "IT.RELREC.IDVARVAL", "Name": "IDVARVAL", "DataType": "text", "Length": 2, "SASFieldName": "IDVARVAL", "CommentOID": "COM.IDVARVAL", "Description": {"TranslatedText": [{"lang": "en", "_content": "Identifying Variable Value"}]}, "Origin": {"Type": "Assigned"}}, {"OID": "IT.RELREC.RELID", "Name": "RELID", "DataType": "text", "Length": 10, "SASFieldName": "RELID", "Description": {"TranslatedText": [{"lang": "en", "_content": "Relationship Identifier"}]}, "Origin": {"Type": "Derived"}}, {"OID": "IT.RELREC.RELTYPE", "Name": "RELTYPE", "DataType": "text", "Length": 4, "SASFieldName": "RELTYPE", "CommentOID": "COM.RELTYPE", "Description": {"TranslatedText": [{"lang": "en", "_content": "Relationship Type"}]}, "Origin": {"Type": "Assigned"}}, {"OID": "IT.SC.DOMAIN", "Name": "DOMAIN", "DataType": "text", "Length": 2, "SASFieldName": "DOMAIN", "Description": {"TranslatedText": [{"lang": "en", "_content": "Domain Abbreviation"}]}, "CodeListRef": {"CodeListOID": "CL.SC.DOMAIN"}, "Origin": {"Type": "Assigned"}}, {"OID": "IT.SC.SCDTC", "Name": "SCDTC", "DataType": "date", "SASFieldName": "SCDTC", "Description": {"TranslatedText": [{"lang": "en", "_content": "Date/Time of Collection"}]}, "Origin": {"Type": "CRF", "DocumentRef": [{"leafID": "LF.blankcrf", "PDFPageRef": [{"PageRefs": "6", "Type": "PhysicalRef"}]}]}}, {"OID": "IT.SC.SCDY", "Name": "SCDY", "DataType": "integer", "Length": 3, "SASFieldName": "SCDY", "Description": {"TranslatedText": [{"lang": "en", "_content": "Study Day of Examination"}]}, "Origin": {"Type": "Derived"}}, {"OID": "IT.SC.SCORRES", "Name": "SCORRES", "DataType": "text", "Length": 24, "SASFieldName": "SCORRES", "Description": {"TranslatedText": [{"lang": "en", "_content": "Result or Finding in Original Units"}]}, "Origin": {"Type": "CRF", "DocumentRef": [{"leafID": "LF.blankcrf", "PDFPageRef": [{"PageRefs": "3 6", "Type": "PhysicalRef"}]}]}, "ValueListRef": {"ValueListOID": "VL.SC.SCORRES"}}, {"OID": "IT.SC.SCORRES.EDLEVEL", "Name": "SC.EDLEVEL", "DataType": "text", "Length": 24, "SASFieldName": "EDLEVEL", "Description": {"TranslatedText": [{"lang": "en", "_content": "Education Level"}]}, "Origin": {"Type": "CRF", "DocumentRef": [{"leafID": "LF.blankcrf", "PDFPageRef": [{"PageRefs": "6", "Type": "PhysicalRef"}]}]}}, {"OID": "IT.SC.SCORRES.MARISTAT", "Name": "SC.MARISTAT", "DataType": "text", "Length": 17, "SASFieldName": "MARISTAT", "Description": {"TranslatedText": [{"lang": "en", "_content": "Marital Status"}]}, "CodeListRef": {"CodeListOID": "CL.MARISTAT"}, "Origin": {"Type": "CRF", "DocumentRef": [{"leafID": "LF.blankcrf", "PDFPageRef": [{"PageRefs": "6", "Type": "PhysicalRef"}]}]}}, {"OID": "IT.SC.SCORRES.SUBJINIT", "Name": "SC.SUBJINIT", "DataType": "text", "Length": 3, "SASFieldName": "SUBJINIT", "Description": {"TranslatedText": [{"lang": "en", "_content": "Subject Initials"}]}, "Origin": {"Type": "CRF", "DocumentRef": [{"leafID": "LF.blankcrf", "PDFPageRef": [{"PageRefs": "3", "Type": "PhysicalRef"}]}]}}, {"OID": "IT.SC.SCSEQ", "Name": "SCSEQ", "DataType": "integer", "Length": 1, "SASFieldName": "SCSEQ", "Description": {"TranslatedText": [{"lang": "en", "_content": "Sequence Number"}]}, "Origin": {"Type": "Derived"}}, {"OID": "IT.SC.SCSTRESC", "Name": "SCSTRESC", "DataType": "text", "Length": 24, "SASFieldName": "SCSTRESC", "Description": {"TranslatedText": [{"lang": "en", "_content": "Character Result/Finding in Std Format"}]}, "Origin": {"Type": "Derived"}}, {"OID": "IT.SC.SCTEST", "Name": "SCTEST", "DataType": "text", "Length": 16, "SASFieldName": "SCTEST", "Description": {"TranslatedText": [{"lang": "en", "_content": "Subject Characteristic"}]}, "CodeListRef": {"CodeListOID": "CL.SCTEST"}, "Origin": {"Type": "CRF", "DocumentRef": [{"leafID": "LF.blankcrf", "PDFPageRef": [{"PageRefs": "6", "Type": "PhysicalRef"}]}]}}, {"OID": "IT.SC.SCTESTCD", "Name": "SCTESTCD", "DataType": "text", "Length": 8, "SASFieldName": "SCTESTCD", "Description": {"TranslatedText": [{"lang": "en", "_content": "Subject Characteristic Short Name"}]}, "CodeListRef": {"CodeListOID": "CL.SCTESTCD"}, "Origin": {"Type": "Assigned"}}, {"OID": "IT.SE.DOMAIN", "Name": "DOMAIN", "DataType": "text", "Length": 2, "SASFieldName": "DOMAIN", "Description": {"TranslatedText": [{"lang": "en", "_content": "Domain Abbreviation"}]}, "CodeListRef": {"CodeListOID": "CL.SE.DOMAIN"}, "Origin": {"Type": "Assigned"}}, {"OID": "IT.SE.ELEMENT", "Name": "ELEMENT", "DataType": "text", "Length": 40, "SASFieldName": "ELEMENT", "Description": {"TranslatedText": [{"lang": "en", "_content": "Description of Element"}]}, "Origin": {"Type": "Protocol"}}, {"OID": "IT.SE.ETCD", "Name": "ETCD", "DataType": "text", "Length": 7, "SASFieldName": "ETCD", "Description": {"TranslatedText": [{"lang": "en", "_content": "Element Code"}]}, "Origin": {"Type": "Assigned"}}, {"OID": "IT.SE.SEENDTC", "Name": "SEENDTC", "DataType": "date", "SASFieldName": "SEENDTC", "Description": {"TranslatedText": [{"lang": "en", "_content": "End Date/Time of Element"}]}, "Origin": {"Type": "Derived"}}, {"OID": "IT.SE.SESEQ", "Name": "SESEQ", "DataType": "integer", "Length": 1, "SASFieldName": "SESEQ", "Description": {"TranslatedText": [{"lang": "en", "_content": "Sequence Number"}]}, "Origin": {"Type": "Derived"}}, {"OID": "IT.SE.SESTDTC", "Name": "SESTDTC", "DataType": "date", "SASFieldName": "SESTDTC", "Description": {"TranslatedText": [{"lang": "en", "_content": "Start Date/Time of Element"}]}, "Origin": {"Type": "Derived"}}, {"OID": "IT.SE.TAETORD", "Name": "TAETORD", "DataType": "integer", "Length": 1, "SASFieldName": "TAETORD", "Description": {"TranslatedText": [{"lang": "en", "_content": "Planned Order of Elements within Arm"}]}, "Origin": {"Type": "Protocol"}}, {"OID": "IT.STUDYID", "Name": "STUDYID", "DataType": "text", "Length": 7, "SASFieldName": "STUDYID", "Description": {"TranslatedText": [{"lang": "en", "_content": "Study Identifier"}]}, "Origin": {"Type": "Protocol"}}, {"OID": "IT.SUPPAE.IDVAR", "Name": "IDVAR", "DataType": "text", "Length": 5, "SASFieldName": "IDVAR", "CommentOID": "COM.IDVAR", "Description": {"TranslatedText": [{"lang": "en", "_content": "Identifying Variable"}]}, "Origin": {"Type": "Assigned"}}, {"OID": "IT.SUPPAE.IDVARVAL", "Name": "IDVARVAL", "DataType": "text", "Length": 1, "SASFieldName": "IDVARVAL", "CommentOID": "COM.IDVARVAL", "Description": {"TranslatedText": [{"lang": "en", "_content": "Identifying Variable Value"}]}, "Origin": {"Type": "Assigned"}}, {"OID": "IT.SUPPAE.QEVAL", "Name": "QEVAL", "DataType": "text", "Length": 30, "SASFieldName": "QEVAL", "Description": {"TranslatedText": [{"lang": "en", "_content": "Evaluator"}]}, "Origin": {"Type": "Assigned"}}, {"OID": "IT.SUPPAE.QLABEL", "Name": "QLABEL", "DataType": "text", "Length": 30, "SASFieldName": "QLABEL", "Description": {"TranslatedText": [{"lang": "en", "_content": "Qualifier Variable Label"}]}, "Origin": {"Type": "Assigned"}}, {"OID": "IT.SUPPAE.QNAM", "Name": "QNAM", "DataType": "text", "Length": 7, "SASFieldName": "QNAM", "Description": {"TranslatedText": [{"lang": "en", "_content": "Qualifier Variable Name"}]}, "Origin": {"Type": "Assigned"}}, {"OID": "IT.SUPPAE.QORIG", "Name": "QORIG", "DataType": "text", "Length": 7, "SASFieldName": "QORIG", "Description": {"TranslatedText": [{"lang": "en", "_content": "Origin"}]}, "Origin": {"Type": "Assigned"}}, {"OID": "IT.SUPPAE.QVAL", "Name": "QVAL", "DataType": "text", "Length": 60, "SASFieldName": "QVAL", "Description": {"TranslatedText": [{"lang": "en", "_content": "Data Value"}]}, "ValueListRef": {"ValueListOID": "VL.SUPPAE.QVAL"}}, {"OID": "IT.SUPPAE.QVAL.AETRTEM", "Name": "AETRTEM", "DataType": "text", "Length": 1, "SASFieldName": "AETRTEM", "Description": {"TranslatedText": [{"lang": "en", "_content": "Treatment Emergent Flag"}]}, "CodeListRef": {"CodeListOID": "CL.NY"}, "Origin": {"Type": "Derived"}}, {"OID": "IT.SUPPAE.QVAL.HLGT", "Name": "HLGT", "DataType": "text", "Length": 52, "SASFieldName": "HLGT", "Description": {"TranslatedText": [{"lang": "en", "_content": "High Level Group Term"}]}, "CodeListRef": {"CodeListOID": "CL.AEDICT_F"}, "Origin": {"Type": "Assigned"}}, {"OID": "IT.SUPPAE.QVAL.HLT", "Name": "HLT", "DataType": "text", "Length": 60, "SASFieldName": "HLT", "Description": {"TranslatedText": [{"lang": "en", "_content": "High Level Term"}]}, "CodeListRef": {"CodeListOID": "CL.AEDICT_F"}, "Origin": {"Type": "Assigned"}}, {"OID": "IT.SUPPAE.QVAL.LLT", "Name": "LLT", "DataType": "text", "Length": 18, "SASFieldName": "LLT", "Description": {"TranslatedText": [{"lang": "en", "_content": "Lowest Level Term"}]}, "CodeListRef": {"CodeListOID": "CL.AEDICT_F"}, "Origin": {"Type": "Assigned"}}, {"OID": "IT.SUPPCM.IDVAR", "Name": "IDVAR", "DataType": "text", "Length": 5, "SASFieldName": "IDVAR", "CommentOID": "COM.IDVAR", "Description": {"TranslatedText": [{"lang": "en", "_content": "Identifying Variable"}]}, "Origin": {"Type": "Assigned"}}, {"OID": "IT.SUPPCM.IDVARVAL", "Name": "IDVARVAL", "DataType": "text", "Length": 2, "SASFieldName": "IDVARVAL", "CommentOID": "COM.IDVARVAL", "Description": {"TranslatedText": [{"lang": "en", "_content": "Identifying Variable Value"}]}, "Origin": {"Type": "Assigned"}}, {"OID": "IT.SUPPCM.QEVAL", "Name": "QEVAL", "DataType": "text", "Length": 30, "SASFieldName": "QEVAL", "Description": {"TranslatedText": [{"lang": "en", "_content": "Evaluator"}]}, "Origin": {"Type": "Assigned"}}, {"OID": "IT.SUPPCM.QLABEL", "Name": "QLABEL", "DataType": "text", "Length": 26, "SASFieldName": "QLABEL", "Description": {"TranslatedText": [{"lang": "en", "_content": "Qualifier Variable Label"}]}, "Origin": {"Type": "Assigned"}}, {"OID": "IT.SUPPCM.QNAM", "Name": "QNAM", "DataType": "text", "Length": 8, "SASFieldName": "QNAM", "Description": {"TranslatedText": [{"lang": "en", "_content": "Qualifier Variable Name"}]}, "Origin": {"Type": "Assigned"}}, {"OID": "IT.SUPPCM.QORIG", "Name": "QORIG", "DataType": "text", "Length": 10, "SASFieldName": "QORIG", "Description": {"TranslatedText": [{"lang": "en", "_content": "Origin"}]}, "Origin": {"Type": "Assigned"}}, {"OID": "IT.SUPPCM.QVAL", "Name": "QVAL", "DataType": "text", "Length": 43, "SASFieldName": "QVAL", "Description": {"TranslatedText": [{"lang": "en", "_content": "Data Value"}]}, "ValueListRef": {"ValueListOID": "VL.SUPPCM.QVAL"}}, {"OID": "IT.SUPPCM.QVAL.ATC4CODE", "Name": "ATC4CODE", "DataType": "text", "Length": 5, "SASFieldName": "ATC4CODE", "Description": {"TranslatedText": [{"lang": "en", "_content": "WHODRUG ATC Level 4 Code"}]}, "CodeListRef": {"CodeListOID": "CL.DRUGDICT_F"}, "Origin": {"Type": "Assigned"}}, {"OID": "IT.SUPPCM.QVAL.ATC4TERM", "Name": "ATC4TERM", "DataType": "text", "Length": 43, "SASFieldName": "ATC4TERM", "Description": {"TranslatedText": [{"lang": "en", "_content": "ATC4 Drug Class Term"}]}, "CodeListRef": {"CodeListOID": "CL.DRUGDICT_F"}, "Origin": {"Type": "Assigned"}}, {"OID": "IT.SUPPCM.QVAL.CPREFCD", "Name": "CPREFCD", "DataType": "text", "Length": 11, "SASFieldName": "CPREFCD", "Description": {"TranslatedText": [{"lang": "en", "_content": "WHODRUG Drug Code"}]}, "CodeListRef": {"CodeListOID": "CL.DRUGDICT_F"}, "Origin": {"Type": "Assigned"}}, {"OID": "IT.SUPPCM.QVAL.PDDREAS", "Name": "PDDREAS", "DataType": "text", "Length": 21, "SASFieldName": "PDDREAS", "Description": {"TranslatedText": [{"lang": "en", "_content": "Reason for Discontinuation"}]}, "CodeListRef": {"CodeListOID": "CL.DDISCNTF"}, "Origin": {"Type": "CRF", "DocumentRef": [{"leafID": "LF.blankcrf", "PDFPageRef": [{"PageRefs": "9", "Type": "PhysicalRef"}]}]}}, {"OID": "IT.SUPPCM.QVAL.PDRESP", "Name": "PDRESP", "DataType": "text", "Length": 4, "SASFieldName": "PDRESP", "Description": {"TranslatedText": [{"lang": "en", "_content": "Response"}]}, "CodeListRef": {"CodeListOID": "CL.PSRESPF"}, "Origin": {"Type": "CRF", "DocumentRef": [{"leafID": "LF.blankcrf", "PDFPageRef": [{"PageRefs": "9", "Type": "PhysicalRef"}]}]}}, {"OID": "IT.SUPPDM.IDVAR", "Name": "IDVAR", "DataType": "text", "Length": 1, "SASFieldName": "IDVAR", "CommentOID": "COM.IDVAR", "Description": {"TranslatedText": [{"lang": "en", "_content": "Identifying Variable"}]}, "Origin": {"Type": "Assigned"}}, {"OID": "IT.SUPPDM.IDVARVAL", "Name": "IDVARVAL", "DataType": "text", "Length": 1, "SASFieldName": "IDVARVAL", "CommentOID": "COM.IDVARVAL", "Description": {"TranslatedText": [{"lang": "en", "_content": "Identifying Variable Value"}]}, "Origin": {"Type": "Assigned"}}, {"OID": "IT.SUPPDM.QEVAL", "Name": "QEVAL", "DataType": "text", "Length": 30, "SASFieldName": "QEVAL", "Description": {"TranslatedText": [{"lang": "en", "_content": "Evaluator"}]}, "Origin": {"Type": "Assigned"}}, {"OID": "IT.SUPPDM.QLABEL", "Name": "QLABEL", "DataType": "text", "Length": 26, "SASFieldName": "QLABEL", "Description": {"TranslatedText": [{"lang": "en", "_content": "Qualifier Variable Label"}]}, "Origin": {"Type": "Assigned"}}, {"OID": "IT.SUPPDM.QNAM", "Name": "QNAM", "DataType": "text", "Length": 8, "SASFieldName": "QNAM", "Description": {"TranslatedText": [{"lang": "en", "_content": "Qualifier Variable Name"}]}, "Origin": {"Type": "Assigned"}}, {"OID": "IT.SUPPDM.QORIG", "Name": "QORIG", "DataType": "text", "Length": 11, "SASFieldName": "QORIG", "Description": {"TranslatedText": [{"lang": "en", "_content": "Origin"}]}, "Origin": {"Type": "Assigned"}}, {"OID": "IT.SUPPDM.QVAL", "Name": "QVAL", "DataType": "text", "Length": 30, "SASFieldName": "QVAL", "Description": {"TranslatedText": [{"lang": "en", "_content": "Data Value"}]}, "ValueListRef": {"ValueListOID": "VL.SUPPDM.QVAL"}}, {"OID": "IT.SUPPDM.QVAL.RACE1", "Name": "RACE1", "DataType": "text", "Length": 5, "SASFieldName": "RACE1", "Description": {"TranslatedText": [{"lang": "en", "_content": "Race 1"}]}, "CodeListRef": {"CodeListOID": "CL.RACE"}, "Origin": {"Type": "CRF", "DocumentRef": [{"leafID": "LF.blankcrf", "PDFPageRef": [{"PageRefs": "6", "Type": "PhysicalRef"}]}]}}, {"OID": "IT.SUPPDM.QVAL.RACE2", "Name": "RACE2", "DataType": "text", "Length": 25, "SASFieldName": "RACE2", "Description": {"TranslatedText": [{"lang": "en", "_content": "Race 2"}]}, "CodeListRef": {"CodeListOID": "CL.RACE"}, "Origin": {"Type": "CRF", "DocumentRef": [{"leafID": "LF.blankcrf", "PDFPageRef": [{"PageRefs": "6", "Type": "PhysicalRef"}]}]}}, {"OID": "IT.SUPPDM.QVAL.RACE3", "Name": "RACE3", "DataType": "text", "Length": 5, "SASFieldName": "RACE3", "Description": {"TranslatedText": [{"lang": "en", "_content": "Race 3"}]}, "CodeListRef": {"CodeListOID": "CL.RACE"}, "Origin": {"Type": "CRF", "DocumentRef": [{"leafID": "LF.blankcrf", "PDFPageRef": [{"PageRefs": "6", "Type": "PhysicalRef"}]}]}}, {"OID": "IT.SUPPDM.QVAL.RACEOTH", "Name": "RACEOTH", "DataType": "text", "Length": 14, "SASFieldName": "RACEOTH", "Description": {"TranslatedText": [{"lang": "en", "_content": "Race, Other"}]}, "Origin": {"Type": "CRF", "DocumentRef": [{"leafID": "LF.blankcrf", "PDFPageRef": [{"PageRefs": "6", "Type": "PhysicalRef"}]}]}}, {"OID": "IT.SUPPDM.QVAL.RAND", "Name": "RAND", "DataType": "text", "Length": 1, "SASFieldName": "RAND", "Description": {"TranslatedText": [{"lang": "en", "_content": "Randomized Population Flag"}]}, "CodeListRef": {"CodeListOID": "CL.NY"}, "Origin": {"Type": "CRF", "DocumentRef": [{"leafID": "LF.blankcrf", "PDFPageRef": [{"PageRefs": "16", "Type": "PhysicalRef"}]}]}}, {"OID": "IT.SUPPDM.QVAL.RANDNO", "Name": "RANDNO", "DataType": "text", "Length": 4, "SASFieldName": "RANDNO", "Description": {"TranslatedText": [{"lang": "en", "_content": "Randomization Number"}]}, "Origin": {"Type": "CRF", "DocumentRef": [{"leafID": "LF.blankcrf", "PDFPageRef": [{"PageRefs": "16", "Type": "PhysicalRef"}]}]}}, {"OID": "IT.SUPPDM.QVAL.SAFETY", "Name": "SAFETY", "DataType": "text", "Length": 1, "SASFieldName": "SAFETY", "Description": {"TranslatedText": [{"lang": "en", "_content": "Safety Population Flag"}]}, "CodeListRef": {"CodeListOID": "CL.NY"}, "Origin": {"Type": "Derived"}}, {"OID": "IT.SUPPEG.IDVAR", "Name": "IDVAR", "DataType": "text", "Length": 5, "SASFieldName": "IDVAR", "CommentOID": "COM.IDVAR", "Description": {"TranslatedText": [{"lang": "en", "_content": "Identifying Variable"}]}, "Origin": {"Type": "Assigned"}}, {"OID": "IT.SUPPEG.IDVARVAL", "Name": "IDVARVAL", "DataType": "text", "Length": 2, "SASFieldName": "IDVARVAL", "CommentOID": "COM.IDVARVAL", "Description": {"TranslatedText": [{"lang": "en", "_content": "Identifying Variable Value"}]}, "Origin": {"Type": "Assigned"}}, {"OID": "IT.SUPPEG.QEVAL", "Name": "QEVAL", "DataType": "text", "Length": 30, "SASFieldName": "QEVAL", "Description": {"TranslatedText": [{"lang": "en", "_content": "Evaluator"}]}, "Origin": {"Type": "Assigned"}}, {"OID": "IT.SUPPEG.QLABEL", "Name": "QLABEL", "DataType": "text", "Length": 36, "SASFieldName": "QLABEL", "Description": {"TranslatedText": [{"lang": "en", "_content": "Qualifier Variable Label"}]}, "Origin": {"Type": "Assigned"}}, {"OID": "IT.SUPPEG.QNAM", "Name": "QNAM", "DataType": "text", "Length": 7, "SASFieldName": "QNAM", "Description": {"TranslatedText": [{"lang": "en", "_content": "Qualifier Variable Name"}]}, "Origin": {"Type": "Assigned"}}, {"OID": "IT.SUPPEG.QORIG", "Name": "QORIG", "DataType": "text", "Length": 7, "SASFieldName": "QORIG", "Description": {"TranslatedText": [{"lang": "en", "_content": "Origin"}]}, "Origin": {"Type": "Assigned"}}, {"OID": "IT.SUPPEG.QVAL", "Name": "QVAL", "DataType": "text", "Length": 2, "SASFieldName": "QVAL", "Description": {"TranslatedText": [{"lang": "en", "_content": "Data Value"}]}, "ValueListRef": {"ValueListOID": "VL.SUPPEG.QVAL"}}, {"OID": "IT.SUPPEG.QVAL.EGCLSIG", "Name": "EGCLSIG", "DataType": "text", "Length": 1, "SASFieldName": "EGCLSIG", "Description": {"TranslatedText": [{"lang": "en", "_content": "Clinically Significant"}]}, "CodeListRef": {"CodeListOID": "CL.NY"}, "Origin": {"Type": "CRF", "DocumentRef": [{"leafID": "LF.blankcrf", "PDFPageRef": [{"PageRefs": "12", "Type": "PhysicalRef"}]}]}}, {"OID": "IT.SUPPEX.IDVAR", "Name": "IDVAR", "DataType": "text", "Length": 5, "SASFieldName": "IDVAR", "CommentOID": "COM.IDVAR", "Description": {"TranslatedText": [{"lang": "en", "_content": "Identifying Variable"}]}, "Origin": {"Type": "Assigned"}}, {"OID": "IT.SUPPEX.IDVARVAL", "Name": "IDVARVAL", "DataType": "text", "Length": 1, "SASFieldName": "IDVARVAL", "CommentOID": "COM.IDVARVAL", "Description": {"TranslatedText": [{"lang": "en", "_content": "Identifying Variable Value"}]}, "Origin": {"Type": "Assigned"}}, {"OID": "IT.SUPPEX.QEVAL", "Name": "QEVAL", "DataType": "text", "Length": 30, "SASFieldName": "QEVAL", "Description": {"TranslatedText": [{"lang": "en", "_content": "Evaluator"}]}, "Origin": {"Type": "Assigned"}}, {"OID": "IT.SUPPEX.QLABEL", "Name": "QLABEL", "DataType": "text", "Length": 25, "SASFieldName": "QLABEL", "Description": {"TranslatedText": [{"lang": "en", "_content": "Qualifier Variable Label"}]}, "Origin": {"Type": "Assigned"}}, {"OID": "IT.SUPPEX.QNAM", "Name": "QNAM", "DataType": "text", "Length": 4, "SASFieldName": "QNAM", "Description": {"TranslatedText": [{"lang": "en", "_content": "Qualifier Variable Name"}]}, "Origin": {"Type": "Assigned"}}, {"OID": "IT.SUPPEX.QORIG", "Name": "QORIG", "DataType": "text", "Length": 11, "SASFieldName": "QORIG", "Description": {"TranslatedText": [{"lang": "en", "_content": "Origin"}]}, "Origin": {"Type": "Assigned"}}, {"OID": "IT.SUPPEX.QVAL", "Name": "QVAL", "DataType": "text", "Length": 2, "SASFieldName": "QVAL", "Description": {"TranslatedText": [{"lang": "en", "_content": "Data Value"}]}, "ValueListRef": {"ValueListOID": "VL.SUPPEX.QVAL"}}, {"OID": "IT.SUPPEX.QVAL.SMNO", "Name": "SMNO", "DataType": "integer", "Length": 2, "SASFieldName": "SMNO", "Description": {"TranslatedText": [{"lang": "en", "_content": "Number of Tablets Per Day"}]}, "Origin": {"Type": "CRF", "DocumentRef": [{"leafID": "LF.blankcrf", "PDFPageRef": [{"PageRefs": "20", "Type": "PhysicalRef"}]}]}}, {"OID": "IT.SUPPLB.IDVAR", "Name": "IDVAR", "DataType": "text", "Length": 5, "SASFieldName": "IDVAR", "CommentOID": "COM.IDVAR", "Description": {"TranslatedText": [{"lang": "en", "_content": "Identifying Variable"}]}, "Origin": {"Type": "Assigned"}}, {"OID": "IT.SUPPLB.IDVARVAL", "Name": "IDVARVAL", "DataType": "text", "Length": 2, "SASFieldName": "IDVARVAL", "CommentOID": "COM.IDVARVAL", "Description": {"TranslatedText": [{"lang": "en", "_content": "Identifying Variable Value"}]}, "Origin": {"Type": "Assigned"}}, {"OID": "IT.SUPPLB.QEVAL", "Name": "QEVAL", "DataType": "text", "Length": 30, "SASFieldName": "QEVAL", "Description": {"TranslatedText": [{"lang": "en", "_content": "Evaluator"}]}, "Origin": {"Type": "Assigned"}}, {"OID": "IT.SUPPLB.QLABEL", "Name": "QLABEL", "DataType": "text", "Length": 36, "SASFieldName": "QLABEL", "Description": {"TranslatedText": [{"lang": "en", "_content": "Qualifier Variable Label"}]}, "Origin": {"Type": "Assigned"}}, {"OID": "IT.SUPPLB.QNAM", "Name": "QNAM", "DataType": "text", "Length": 7, "SASFieldName": "QNAM", "Description": {"TranslatedText": [{"lang": "en", "_content": "Qualifier Variable Name"}]}, "Origin": {"Type": "Assigned"}}, {"OID": "IT.SUPPLB.QORIG", "Name": "QORIG", "DataType": "text", "Length": 7, "SASFieldName": "QORIG", "Description": {"TranslatedText": [{"lang": "en", "_content": "Origin"}]}, "Origin": {"Type": "Assigned"}}, {"OID": "IT.SUPPLB.QVAL", "Name": "QVAL", "DataType": "text", "Length": 2, "SASFieldName": "QVAL", "Description": {"TranslatedText": [{"lang": "en", "_content": "Data Value"}]}, "ValueListRef": {"ValueListOID": "VL.SUPPLB.QVAL"}}, {"OID": "IT.SUPPLB.QVAL.LBCLSIG", "Name": "LBCLSIG", "DataType": "text", "Length": 1, "SASFieldName": "LBCLSIG", "Description": {"TranslatedText": [{"lang": "en", "_content": "Clinically Significant"}]}, "CodeListRef": {"CodeListOID": "CL.NY"}, "Origin": {"Type": "Derived"}}, {"OID": "IT.SUPPQS.IDVAR", "Name": "IDVAR", "DataType": "text", "Length": 5, "SASFieldName": "IDVAR", "CommentOID": "COM.IDVAR", "Description": {"TranslatedText": [{"lang": "en", "_content": "Identifying Variable"}]}, "Origin": {"Type": "Assigned"}}, {"OID": "IT.SUPPQS.IDVARVAL", "Name": "IDVARVAL", "DataType": "text", "Length": 50, "SASFieldName": "IDVARVAL", "CommentOID": "COM.IDVARVAL", "Description": {"TranslatedText": [{"lang": "en", "_content": "Identifying Variable Value"}]}, "Origin": {"Type": "Assigned"}}, {"OID": "IT.SUPPQS.QEVAL", "Name": "QEVAL", "DataType": "text", "Length": 30, "SASFieldName": "QEVAL", "Description": {"TranslatedText": [{"lang": "en", "_content": "Evaluator"}]}, "Origin": {"Type": "Assigned"}}, {"OID": "IT.SUPPQS.QLABEL", "Name": "QLABEL", "DataType": "text", "Length": 36, "SASFieldName": "QLABEL", "Description": {"TranslatedText": [{"lang": "en", "_content": "Qualifier Variable Label"}]}, "Origin": {"Type": "Assigned"}}, {"OID": "IT.SUPPQS.QNAM", "Name": "QNAM", "DataType": "text", "Length": 7, "SASFieldName": "QNAM", "Description": {"TranslatedText": [{"lang": "en", "_content": "Qualifier Variable Name"}]}, "Origin": {"Type": "Assigned"}}, {"OID": "IT.SUPPQS.QORIG", "Name": "QORIG", "DataType": "text", "Length": 7, "SASFieldName": "QORIG", "Description": {"TranslatedText": [{"lang": "en", "_content": "Origin"}]}, "Origin": {"Type": "Assigned"}}, {"OID": "IT.SUPPQS.QVAL", "Name": "QVAL", "DataType": "text", "Length": 3, "SASFieldName": "QVAL", "Description": {"TranslatedText": [{"lang": "en", "_content": "Data Value"}]}, "ValueListRef": {"ValueListOID": "VL.SUPPQS.QVAL"}}, {"OID": "IT.SUPPQS.QVAL.RTRINIT", "Name": "RTRINIT", "DataType": "text", "Length": 3, "SASFieldName": "RTRINIT", "CommentOID": "COM.SUPPQS.QVAL.RTRINIT", "Description": {"TranslatedText": [{"lang": "en", "_content": "Rater Initials"}]}, "Origin": {"Type": "CRF", "DocumentRef": [{"leafID": "LF.blankcrf", "PDFPageRef": [{"PageRefs": "13 14 17", "Type": "PhysicalRef"}]}]}}, {"OID": "IT.SUPPVS.IDVAR", "Name": "IDVAR", "DataType": "text", "Length": 5, "SASFieldName": "IDVAR", "CommentOID": "COM.IDVAR", "Description": {"TranslatedText": [{"lang": "en", "_content": "Identifying Variable"}]}, "Origin": {"Type": "Assigned"}}, {"OID": "IT.SUPPVS.IDVARVAL", "Name": "IDVARVAL", "DataType": "text", "Length": 2, "SASFieldName": "IDVARVAL", "CommentOID": "COM.IDVARVAL", "Description": {"TranslatedText": [{"lang": "en", "_content": "Identifying Variable Value"}]}, "Origin": {"Type": "Assigned"}}, {"OID": "IT.SUPPVS.QEVAL", "Name": "QEVAL", "DataType": "text", "Length": 30, "SASFieldName": "QEVAL", "Description": {"TranslatedText": [{"lang": "en", "_content": "Evaluator"}]}, "Origin": {"Type": "Assigned"}}, {"OID": "IT.SUPPVS.QLABEL", "Name": "QLABEL", "DataType": "text", "Length": 36, "SASFieldName": "QLABEL", "Description": {"TranslatedText": [{"lang": "en", "_content": "Qualifier Variable Label"}]}, "Origin": {"Type": "Assigned"}}, {"OID": "IT.SUPPVS.QNAM", "Name": "QNAM", "DataType": "text", "Length": 7, "SASFieldName": "QNAM", "Description": {"TranslatedText": [{"lang": "en", "_content": "Qualifier Variable Name"}]}, "Origin": {"Type": "Assigned"}}, {"OID": "IT.SUPPVS.QORIG", "Name": "QORIG", "DataType": "text", "Length": 7, "SASFieldName": "QORIG", "Description": {"TranslatedText": [{"lang": "en", "_content": "Origin"}]}, "Origin": {"Type": "Assigned"}}, {"OID": "IT.SUPPVS.QVAL", "Name": "QVAL", "DataType": "text", "Length": 2, "SASFieldName": "QVAL", "Description": {"TranslatedText": [{"lang": "en", "_content": "Data Value"}]}, "ValueListRef": {"ValueListOID": "VL.SUPPVS.QVAL"}}, {"OID": "IT.SUPPVS.QVAL.VSCLSIG", "Name": "VSCLSIG", "DataType": "text", "Length": 1, "SASFieldName": "VSCLSIG", "Description": {"TranslatedText": [{"lang": "en", "_content": "Clinically Significant"}]}, "CodeListRef": {"CodeListOID": "CL.NY"}, "Origin": {"Type": "Derived"}}, {"OID": "IT.SV.DOMAIN", "Name": "DOMAIN", "DataType": "text", "Length": 2, "SASFieldName": "DOMAIN", "Description": {"TranslatedText": [{"lang": "en", "_content": "Domain Abbreviation"}]}, "CodeListRef": {"CodeListOID": "CL.SV.DOMAIN"}, "Origin": {"Type": "Assigned"}}, {"OID": "IT.SV.SVENDTC", "Name": "SVENDTC", "DataType": "date", "SASFieldName": "SVENDTC", "Description": {"TranslatedText": [{"lang": "en", "_content": "End Date/Time of Visit"}]}, "Origin": {"Type": "Derived"}}, {"OID": "IT.SV.SVSTDTC", "Name": "SVSTDTC", "DataType": "date", "SASFieldName": "SVSTDTC", "Description": {"TranslatedText": [{"lang": "en", "_content": "Start Date/Time of Visit"}]}, "Origin": {"Type": "Derived"}}, {"OID": "IT.SV.SVSTDY", "Name": "SVSTDY", "DataType": "integer", "Length": 3, "SASFieldName": "SVSTDY", "Description": {"TranslatedText": [{"lang": "en", "_content": "Study Day of Start of Visit"}]}, "Origin": {"Type": "Derived"}}, {"OID": "IT.SV.VISIT", "Name": "VISIT", "DataType": "text", "Length": 8, "SASFieldName": "VISIT", "Description": {"TranslatedText": [{"lang": "en", "_content": "Visit Name"}]}, "Origin": {"Type": "Derived"}}, {"OID": "IT.SV.VISITDY", "Name": "VISITDY", "DataType": "integer", "Length": 3, "SASFieldName": "VISITDY", "Description": {"TranslatedText": [{"lang": "en", "_content": "Planned Study Day of Visit"}]}, "Origin": {"Type": "Protocol"}}, {"OID": "IT.SV.VISITNUM", "Name": "VISITNUM", "DataType": "integer", "Length": 2, "SASFieldName": "VISITNUM", "Description": {"TranslatedText": [{"lang": "en", "_content": "Visit Number"}]}, "Origin": {"Type": "Derived"}}, {"OID": "IT.TA.ARM", "Name": "ARM", "DataType": "text", "Length": 20, "SASFieldName": "ARM", "Description": {"TranslatedText": [{"lang": "en", "_content": "Description of Planned Arm"}]}, "CodeListRef": {"CodeListOID": "CL.ARM"}, "Origin": {"Type": "Protocol"}}, {"OID": "IT.TA.ARMCD", "Name": "ARMCD", "DataType": "text", "Length": 8, "SASFieldName": "ARMCD", "Description": {"TranslatedText": [{"lang": "en", "_content": "Planned Arm Code"}]}, "CodeListRef": {"CodeListOID": "CL.ARMCD"}, "Origin": {"Type": "Assigned"}}, {"OID": "IT.TA.DOMAIN", "Name": "DOMAIN", "DataType": "text", "Length": 2, "SASFieldName": "DOMAIN", "Description": {"TranslatedText": [{"lang": "en", "_content": "Domain Abbreviation"}]}, "CodeListRef": {"CodeListOID": "CL.TA.DOMAIN"}, "Origin": {"Type": "Assigned"}}, {"OID": "IT.TA.ELEMENT", "Name": "ELEMENT", "DataType": "text", "Length": 40, "SASFieldName": "ELEMENT", "Description": {"TranslatedText": [{"lang": "en", "_content": "Description of Element"}]}, "Origin": {"Type": "Protocol"}}, {"OID": "IT.TA.EPOCH", "Name": "EPOCH", "DataType": "text", "Length": 30, "SASFieldName": "EPOCH", "Description": {"TranslatedText": [{"lang": "en", "_content": "Epoch"}]}, "Origin": {"Type": "Protocol"}}, {"OID": "IT.TA.ETCD", "Name": "ETCD", "DataType": "text", "Length": 8, "SASFieldName": "ETCD", "Description": {"TranslatedText": [{"lang": "en", "_content": "Element Code"}]}, "Origin": {"Type": "Assigned"}}, {"OID": "IT.TA.TABRANCH", "Name": "TABRANCH", "DataType": "text", "Length": 35, "SASFieldName": "TABRANCH", "Description": {"TranslatedText": [{"lang": "en", "_content": "Branch"}]}, "Origin": {"Type": "Protocol"}}, {"OID": "IT.TA.TAETORD", "Name": "TAETORD", "DataType": "integer", "Length": 1, "SASFieldName": "TAETORD", "Description": {"TranslatedText": [{"lang": "en", "_content": "Order of Element within Arm"}]}, "Origin": {"Type": "Assigned"}}, {"OID": "IT.TA.TATRANS", "Name": "TATRANS", "DataType": "text", "Length": 1, "SASFieldName": "TATRANS", "Description": {"TranslatedText": [{"lang": "en", "_content": "Transition Rule"}]}, "Origin": {"Type": "Protocol"}}, {"OID": "IT.TE.DOMAIN", "Name": "DOMAIN", "DataType": "text", "Length": 2, "SASFieldName": "DOMAIN", "Description": {"TranslatedText": [{"lang": "en", "_content": "Domain Abbreviation"}]}, "CodeListRef": {"CodeListOID": "CL.TE.DOMAIN"}, "Origin": {"Type": "Assigned"}}, {"OID": "IT.TE.ELEMENT", "Name": "ELEMENT", "DataType": "text", "Length": 40, "SASFieldName": "ELEMENT", "Description": {"TranslatedText": [{"lang": "en", "_content": "Description of Element"}]}, "Origin": {"Type": "Protocol"}}, {"OID": "IT.TE.ETCD", "Name": "ETCD", "DataType": "text", "Length": 8, "SASFieldName": "ETCD", "Description": {"TranslatedText": [{"lang": "en", "_content": "Element Code"}]}, "Origin": {"Type": "Assigned"}}, {"OID": "IT.TE.TEDUR", "Name": "TEDUR", "DataType": "text", "Length": 4, "SASFieldName": "TEDUR", "Description": {"TranslatedText": [{"lang": "en", "_content": "Planned Duration of Element"}]}, "Origin": {"Type": "Protocol"}}, {"OID": "IT.TE.TESTRL", "Name": "TESTRL", "DataType": "text", "Length": 24, "SASFieldName": "TESTRL", "Description": {"TranslatedText": [{"lang": "en", "_content": "Rule for Start of Element"}]}, "Origin": {"Type": "Protocol"}}, {"OID": "IT.TI.DOMAIN", "Name": "DOMAIN", "DataType": "text", "Length": 2, "SASFieldName": "DOMAIN", "Description": {"TranslatedText": [{"lang": "en", "_content": "Domain Abbreviation"}]}, "CodeListRef": {"CodeListOID": "CL.TI.DOMAIN"}, "Origin": {"Type": "Assigned"}}, {"OID": "IT.TI.IECAT", "Name": "IECAT", "DataType": "text", "Length": 9, "SASFieldName": "IECAT", "Description": {"TranslatedText": [{"lang": "en", "_content": "Inclusion/Exclusion Category"}]}, "Origin": {"Type": "CRF", "DocumentRef": [{"leafID": "LF.blankcrf", "PDFPageRef": [{"FirstPage": 4, "LastPage": 5, "Type": "PhysicalRef"}]}]}}, {"OID": "IT.TI.IETEST", "Name": "IETEST", "DataType": "text", "Length": 92, "SASFieldName": "IETEST", "Description": {"TranslatedText": [{"lang": "en", "_content": "Inclusion/Exclusion Criterion"}]}, "CodeListRef": {"CodeListOID": "CL.IETEST"}, "Origin": {"Type": "CRF", "DocumentRef": [{"leafID": "LF.blankcrf", "PDFPageRef": [{"FirstPage": 4, "LastPage": 5, "Type": "PhysicalRef"}]}]}}, {"OID": "IT.TI.IETESTCD", "Name": "IETESTCD", "DataType": "text", "Length": 6, "SASFieldName": "IETESTCD", "Description": {"TranslatedText": [{"lang": "en", "_content": "Incl/Excl Criterion Short Name"}]}, "CodeListRef": {"CodeListOID": "CL.IETESTCD"}, "Origin": {"Type": "Assigned"}}, {"OID": "IT.TS.DOMAIN", "Name": "DOMAIN", "DataType": "text", "Length": 2, "SASFieldName": "DOMAIN", "Description": {"TranslatedText": [{"lang": "en", "_content": "Domain Abbreviation"}]}, "CodeListRef": {"CodeListOID": "CL.TS.DOMAIN"}, "Origin": {"Type": "Assigned"}}, {"OID": "IT.TS.TSPARM", "Name": "TSPARM", "DataType": "text", "Length": 36, "SASFieldName": "TSPARM", "Description": {"TranslatedText": [{"lang": "en", "_content": "Trial Summary Parameter"}]}, "CodeListRef": {"CodeListOID": "CL.TSPARM"}, "Origin": {"Type": "Assigned"}}, {"OID": "IT.TS.TSPARMCD", "Name": "TSPARMCD", "DataType": "text", "Length": 8, "SASFieldName": "TSPARMCD", "Description": {"TranslatedText": [{"lang": "en", "_content": "Trial Summary Parameter Short Name"}]}, "CodeListRef": {"CodeListOID": "CL.TSPARMCD"}, "Origin": {"Type": "Assigned"}}, {"OID": "IT.TS.TSSEQ", "Name": "TSSEQ", "DataType": "integer", "Length": 1, "SASFieldName": "TSSEQ", "Description": {"TranslatedText": [{"lang": "en", "_content": "Sequence Number"}]}, "Origin": {"Type": "Derived"}}, {"OID": "IT.TS.TSVAL", "Name": "TSVAL", "DataType": "text", "Length": 57, "SASFieldName": "TSVAL", "Description": {"TranslatedText": [{"lang": "en", "_content": "Parameter Value"}]}, "Origin": {"Type": "Protocol"}, "ValueListRef": {"ValueListOID": "VL.TS.TSVAL"}}, {"OID": "IT.TS.TSVAL.ADDON", "Name": "ADDON", "DataType": "text", "Length": 57, "SASFieldName": "ADDON", "Description": {"TranslatedText": [{"lang": "en", "_content": "Added on to Existing Treatments"}]}, "Origin": {"Type": "Assigned"}}, {"OID": "IT.TS.TSVAL.AGEMAX", "Name": "AGEMAX", "DataType": "integer", "Length": 2, "SASFieldName": "AGEMAX", "Description": {"TranslatedText": [{"lang": "en", "_content": "Planned Maximum Age of Subjects"}]}, "Origin": {"Type": "Assigned"}}, {"OID": "IT.TS.TSVAL.AGEMIN", "Name": "AGEMIN", "DataType": "integer", "Length": 2, "SASFieldName": "AGEMIN", "Description": {"TranslatedText": [{"lang": "en", "_content": "Planned Minimum Age of Subjects"}]}, "Origin": {"Type": "Assigned"}}, {"OID": "IT.TS.TSVAL.AGESPAN", "Name": "AGESPAN", "DataType": "text", "Length": 57, "SASFieldName": "AGESPAN", "Description": {"TranslatedText": [{"lang": "en", "_content": "Age Span"}]}, "Origin": {"Type": "Assigned"}}, {"OID": "IT.TS.TSVAL.AGEU", "Name": "AGEU", "DataType": "text", "Length": 57, "SASFieldName": "AGEU", "Description": {"TranslatedText": [{"lang": "en", "_content": "Age Unit"}]}, "Origin": {"Type": "Assigned"}}, {"OID": "IT.TS.TSVAL.DOSE", "Name": "DOSE", "DataType": "integer", "Length": 2, "SASFieldName": "DOSE", "Description": {"TranslatedText": [{"lang": "en", "_content": "Dose per Administration"}]}, "Origin": {"Type": "Assigned"}}, {"OID": "IT.TS.TSVAL.DOSFRQ", "Name": "DOSFRQ", "DataType": "text", "Length": 57, "SASFieldName": "DOSFRQ", "Description": {"TranslatedText": [{"lang": "en", "_content": "Dosing Frequency"}]}, "Origin": {"Type": "Assigned"}}, {"OID": "IT.TS.TSVAL.DOSU", "Name": "DOSU", "DataType": "text", "Length": 57, "SASFieldName": "DOSU", "Description": {"TranslatedText": [{"lang": "en", "_content": "Dose Units"}]}, "Origin": {"Type": "Assigned"}}, {"OID": "IT.TS.TSVAL.LENGTH", "Name": "LENGTH", "DataType": "text", "Length": 57, "SASFieldName": "LENGTH", "Description": {"TranslatedText": [{"lang": "en", "_content": "Trial Length"}]}, "Origin": {"Type": "Assigned"}}, {"OID": "IT.TS.TSVAL.OBJPRIM", "Name": "OBJPRIM", "DataType": "text", "Length": 57, "SASFieldName": "OBJPRIM", "Description": {"TranslatedText": [{"lang": "en", "_content": "Trial Primary Objective"}]}, "Origin": {"Type": "Assigned"}}, {"OID": "IT.TS.TSVAL.OBJSEC", "Name": "OBJSEC", "DataType": "text", "Length": 57, "SASFieldName": "OBJSEC", "Description": {"TranslatedText": [{"lang": "en", "_content": "Trial Secondary Objective"}]}, "Origin": {"Type": "Assigned"}}, {"OID": "IT.TS.TSVAL.PLANSUB", "Name": "PLANSUB", "DataType": "integer", "Length": 2, "SASFieldName": "PLANSUB", "Description": {"TranslatedText": [{"lang": "en", "_content": "Planned Number of Subjects"}]}, "Origin": {"Type": "Assigned"}}, {"OID": "IT.TS.TSVAL.RANDOM", "Name": "RANDOM", "DataType": "text", "Length": 57, "SASFieldName": "RANDOM", "Description": {"TranslatedText": [{"lang": "en", "_content": "Trial is Randomized"}]}, "Origin": {"Type": "Assigned"}}, {"OID": "IT.TS.TSVAL.ROUTE", "Name": "ROUTE", "DataType": "text", "Length": 57, "SASFieldName": "ROUTE", "Description": {"TranslatedText": [{"lang": "en", "_content": "Route of Administration"}]}, "Origin": {"Type": "Assigned"}}, {"OID": "IT.TS.TSVAL.SEXPOP", "Name": "SEXPOP", "DataType": "text", "Length": 57, "SASFieldName": "SEXPOP", "Description": {"TranslatedText": [{"lang": 