<?xml version='1.0' encoding='us-ascii'?>
<ODM AsOfDateTime="2020-06-03T12:31:38.911537+00:00" CreationDateTime="2020-06-03T12:31:38.911537+00:00" FileOID="ODM.TEST.IGD.001" FileType="Snapshot" Granularity="Metadata" ODMVersion="1.3.2" Originator="CDISC 360" SourceSystem="WS2" SourceSystemVersion="0.1" def:Context="Other" xmlns="http://www.cdisc.org/ns/odm/v1.3" xmlns:def="http://www.cdisc.org/ns/def/v2.1" xmlns:xlink="http://www.w3.org/1999/xlink"><Study OID="ST.TEST.IGD.001"><GlobalVariables><StudyName>TEST ODM ItemGroupDef</StudyName><StudyDescription>ItemGroupDef 001</StudyDescription><ProtocolName>ODM ItemGroupDef</ProtocolName></GlobalVariables><MetaDataVersion Description="ItemGroupDef Test 001" Name="ItemGroupDefTest001" OID="MDV.TEST.IGD.001" def:DefineVersion="2.1.0"><ItemGroupDef Domain="VS" IsReferenceData="No" Name="VS" OID="IG.VS" Purpose="Tabulation" Repeating="Yes" SASDatasetName="VS" def:StandardOID="STD.01" def:Structure="One record per vital sign measurement per time point per visit per subject"><Description><TranslatedText xml:lang="en">Vital Signs</TranslatedText></Description><ItemRef ItemOID="IT.STUDYID" KeySequence="1" Mandatory="Yes" OrderNumber="1" /><ItemRef ItemOID="IT.VS.DOMAIN" Mandatory="Yes" OrderNumber="2" /><ItemRef ItemOID="IT.VS.USUBJID" KeySequence="2" Mandatory="Yes" MethodOID="MT.USUBJID" OrderNumber="3" /><ItemRef ItemOID="IT.VS.VSSEQ" Mandatory="Yes" MethodOID="MT.SEQ" OrderNumber="4" /><ItemRef ItemOID="IT.VS.VSTESTCD" KeySequence="3" Mandatory="Yes" OrderNumber="5" /><ItemRef ItemOID="IT.VS.VSTEST" Mandatory="Yes" OrderNumber="6" /><ItemRef ItemOID="IT.VS.VSPOS" Mandatory="No" OrderNumber="7" /><ItemRef ItemOID="IT.VS.VSORRES" Mandatory="No" OrderNumber="8" /><ItemRef ItemOID="IT.VS.VSORRESU" Mandatory="No" OrderNumber="9" /><ItemRef ItemOID="IT.VS.VSSTRESC" Mandatory="No" MethodOID="MT.VSSTRESC" OrderNumber="10" /><ItemRef ItemOID="IT.VS.VSSTRESN" Mandatory="No" MethodOID="MT.VSSTRESN" OrderNumber="11" /><ItemRef ItemOID="IT.VS.VSSTRESU" Mandatory="No" OrderNumber="12" /><ItemRef ItemOID="IT.VS.VSBLFL" Mandatory="No" MethodOID="MT.VSBLFL" OrderNumber="13" /><def:Class Name="FINDINGS" /></ItemGroupDef></MetaDataVersion></Study></ODM>